T [ms],AccX [mg],AccY [mg],AccZ [mg],GyroX [mdps],GyroY [mdps],GyroZ [mdps]
36387, -650, -278, 576, 53620, 38360, -39690
36407, -904, -440, 519, 83930, 177450, -89180
36427, -1069, -560, 757, 44380, 138390, -88830
36447, -944, -337, 1029, 4900, 55860, -66920
36467, -622, -126, 525, 12460, -20930, -13230
36487, -749, -241, 460, 73850, -88340, 48440
36507, -660, -70, 612, 80220, -69090, 50820
36527, -681, -36, 653, 52500, -14560, 26320
36547, -598, 159, 686, 45430, -20230, 23660
36567, -807, -468, 1998, 108080, -18830, 32410
36587, -440, -158, 672, 876050, -187320, 132160
36607, -1187, 1997, -706, 1503180, -409640, 18200
36627, -645, 1077, 334, 1158780, -452900, -442610
36647, -738, 326, -130, 175070, -78750, -162820
36667, -664, 132, -61, -33670, 96110, 44730
36687, -599, 209, 64, 32830, 34860, 40460
36707, -680, 559, 291, 37240, -49000, -46830
36727, -624, 608, 229, 12600, -81690, -89600
36747, -709, 751, 438, 8540, -85120, -113470
36767, -793, 793, 635, 9800, -99540, -147840
36787, -922, 725, 925, -48510, -42140, -77980
36807, -917, 576, 953, -73640, 56770, 69580
36827, -782, 714, 521, -22540, 89530, 99750
36847, -703, 673, 406, -7840, 80150, 43960
36867, -728, 628, 419, 8960, 71190, 7560
36887, -721, 612, 328, 33670, 51380, -14000
36907, -668, 686, 394, 2800, 57260, -16100
36927, -683, 648, 437, -6790, 74760, -14280
36947, -779, 461, 470, -5740, 82530, -6510
36967, -635, 562, 159, -44590, 70770, 10990
36987, -762, 751, 329, -46410, 42910, 7140
37007, -772, 604, 286, -40250, 45290, 9800
37027, -677, 505, 213, -18900, 48230, 5600
37047, -682, 520, 259, 4480, 45850, 1470
37067, -573, 295, 247, -4830, 32410, -7980
37087, -791, 571, 333, 33950, 21420, -37240
37107, -728, 469, 358, 10220, 14980, -19460
37127, -894, 465, 152, 69370, 2380, -36960
37147, -738, 509, 215, 57260, -14210, -43190
37167, -855, 565, 197, 38500, -5600, -37380
37187, -885, 443, 194, 38780, 24920, -1050
37207, -886, 429, 277, 72310, 44730, 23100
37227, -886, 461, 265, 80500, 55020, 34370
37247, -759, 848, 141, 78470, 59430, 23800
37267, -757, 495, -13, 106400, 63350, 11760
37287, -747, 479, -117, 118860, 70770, 23030
37307, -721, 406, -125, 151690, 76580, 40460
37327, -756, 397, -164, 176120, 72800, 56070
37347, -744, 387, -342, 164850, 50470, 37730
37367, -681, 516, -354, 151130, 39690, 6230
37387, -698, 601, -377, 151480, 38430, 1470
37407, -769, 598, -297, 163800, 53620, 22680
37427, -819, 768, -262, 194180, 64610, 48230
37447, -718, 757, -349, 231140, 48160, 30800
37467, -841, 626, -444, 195440, 54810, 29680
37487, -719, 643, -420, 147840, 68530, 34720
37507, -738, 706, -351, 126840, 82600, 37310
37527, -681, 714, -509, 88620, 77280, 23030
37547, -642, 562, -553, 64260, 51800, -16590
37567, -594, 473, -620, 61530, 48580, -26880
37587, -617, 511, -607, 61950, 49770, -21280
37607, -571, 439, -634, 54950, 50820, -15120
37627, -558, 464, -717, 47460, 54390, -18270
37647, -509, 201, -784, 46480, 50330, -18970
37667, -493, 191, -792, 48510, 43260, -12320
37687, -478, 59, -878, 41580, 38990, -3430
37707, -451, 123, -895, 24920, 33670, 2170
37727, -401, -71, -915, 12460, 26040, 10780
37747, -490, 206, -860, 16660, 12880, 6580
37767, -508, 158, -837, 25200, 3150, 2030
37787, -510, 190, -749, 31500, 4480, 2170
37807, -476, 167, -766, 32480, 13300, 6230
37827, -485, 288, -757, 35630, 30450, 16590
37847, -499, 332, -789, 33600, 56070, 48790
37867, -501, 457, -847, 33390, 63000, 78120
37887, -537, 512, -862, 50120, 52850, 87710
37907, -464, 415, -826, 58730, 35420, 70070
37927, -434, 322, -828, 56980, 29260, 40880
37947, -373, 287, -842, 60550, 42840, -1260
37967, -417, 384, -882, 59570, 57820, -38850
37987, -375, 309, -932, 84560, 64120, -770
38007, -249, 150, -982, 142520, 59710, 74900
38027, -272, 60, -875, 157290, 47180, 86240
38047, -313, 130, -806, 91420, 24780, 59500
38067, -308, 228, -985, 55020, 19810, -9100
38087, -301, 426, -1050, 29680, 8960, -59150
38107, -330, 387, -1106, 65310, 840, -80010
38127, -375, 221, -963, 90160, -3640, -55020
38147, -414, 339, -959, 75810, 13790, -16590
38167, -323, 142, -960, 52360, 3290, -16800
38187, -276, 96, -1008, 42140, 32760, -24430
38207, -225, -21, -982, 49070, 54740, -32200
38227, -209, -62, -926, 49280, 60900, 3710
38247, -204, 22, -1005, 37030, 47040, 11060
38267, -196, -23, -1011, 35770, 25550, 1820
38287, -232, -33, -987, 45430, 35280, 12180
38307, -237, -51, -957, 71050, 48860, 28630
38327, -268, -145, -940, 66500, 38220, 33460
38347, -397, -325, -929, 51030, 25270, 27720
38367, -367, -112, -929, 113260, -24220, 17780
38387, -328, 4, -793, 271110, -143500, -14490
38407, -384, -405, -694, 283360, -186970, -53130
38427, -418, -613, -795, 119210, -124740, -66990
38447, -216, -359, -912, 59850, -211120, -92400
38467, -346, -613, -820, 92890, -206920, -137970
38487, -226, -795, -731, 64610, 20300, -43610
38507, -169, -759, -535, 92330, 98560, -18970
38527, -384, -723, -514, 161630, 85330, -72870
38547, -516, -182, -1270, 147910, -86310, -181020
38567, -459, -799, -852, 126350, -154490, -260820
38587, -182, -628, -643, 4900, -1470, -134820
38607, -89, -509, -485, -33320, 101640, -2730
38627, -163, -737, -572, 58380, 164290, 40530
38647, -103, -656, -792, 95480, 32690, 83580
38667, -189, -692, -598, 74130, -69440, 46900
38687, -341, -679, -613, 53060, -10150, 49840
38707, -405, -657, -691, 19390, 30730, 47740
38727, -390, -681, -724, 5110, 30030, 21910
38747, -330, -681, -651, 6160, 23660, 10710
38767, -339, -676, -608, 23310, 14070, 11970
38787, -352, -707, -626, 12810, 23170, -6370
38807, -252, -713, -627, -2170, 45780, -16870
38827, -204, -797, -659, -420, 45430, -5950
38847, -214, -787, -647, 12460, 22890, 4900
38867, -175, -734, -622, 10360, 31360, -840
38887, -148, -743, -590, 33320, 85680, -5600
38907, -241, -623, -529, 95900, 147770, 8050
38927, -168, -768, -619, 54180, 117950, 52990
38947, -117, -892, -706, -25340, 96740, 63280
38967, -172, -844, -663, -42420, 117600, 25340
38987, -99, -913, -668, 25410, 78120, 14350
39007, -86, -791, -497, 190260, 106330, 40810
39027, -92, -727, -397, 257460, 208740, 78820
39047, -133, -816, -488, 139440, 295890, 143500
39067, -170, -886, -604, -40810, 396690, 183750
39087, -179, -884, -639, -107590, 482090, 203210
39107, -174, -847, -644, -28560, 493640, 252490
39127, -186, -779, -600, 111650, 469420, 332500
39147, -221, -762, -595, 202510, 468580, 410060
39167, -277, -788, -664, 176610, 538230, 441140
39187, -327, -785, -711, 94150, 676270, 410130
39207, -321, -663, -610, 62720, 806120, 360500
39227, -295, -571, -505, 102830, 822290, 377230
39247, -300, -622, -567, 127190, 741790, 466550
39267, -354, -786, -751, 105140, 686210, 545090
39287, -407, -900, -876, 67340, 744730, 534800
39307, -415, -860, -826, 76510, 870660, 454160
39327, -358, -721, -665, 144900, 927010, 406350
39347, -341, -669, -586, 203350, 858760, 453880
39367, -373, -713, -668, 167580, 764330, 538370
39387, -403, -729, -733, 79310, 758730, 551600
39407, -390, -638, -656, 61880, 815430, 490490
39427, -341, -521, -523, 151550, 815920, 445760
39447, -306, -483, -471, 256200, 727160, 467530
39467, -313, -566, -546, 290150, 630560, 517230
39487, -346, -677, -668, 257670, 613760, 528220
39507, -375, -727, -706, 224420, 684320, 478800
39527, -362, -731, -633, 238770, 768600, 407330
39547, -324, -761, -510, 263340, 780710, 377860
39567, -308, -845, -525, 204330, 699720, 412930
39587, -309, -915, -652, 61530, 566440, 473550
39607, -301, -895, -688, -22540, 469000, 488880
39627, -286, -838, -630, 22680, 455840, 433510
39647, -260, -808, -546, 115570, 481600, 352240
39667, -247, -858, -533, 167650, 477680, 306950
39687, -264, -960, -600, 139230, 443310, 299390
39707, -280, -1074, -677, 49210, 441700, 270410
39727, -272, -1206, -733, -25060, 472570, 202300
39747, -234, -1149, -651, -16380, 450870, 147000
39767, -195, -911, -491, 66150, 323470, 154140
39787, -165, -754, -435, 145810, 138670, 208740
39807, -163, -706, -449, 163660, 29820, 239960
39827, -177, -735, -485, 129570, 65170, 205380
39847, -185, -717, -448, 99190, 177730, 127120
39867, -169, -644, -347, 110810, 262080, 62930
39887, -159, -637, -309, 138250, 245770, 62580
39907, -172, -787, -418, 162190, 118020, 134120
39927, -196, -1039, -624, 180950, -42210, 221690
39947, -235, -1256, -760, 163520, -88900, 233240
39967, -224, -1220, -656, 93660, 47950, 119000
39987, -195, -1071, -494, 55300, 169750, -5040
40007, -218, -1039, -520, 82530, 43960, 16030
40027, -226, -1037, -610, 107590, -222530, 128730
40047, -200, -971, -604, 117810, -384230, 179480
40067, -177, -845, -500, 101080, -336700, 104160
40087, -171, -749, -401, 46200, -171290, -31640
40107, -173, -720, -386, -3780, -71890, -110950
40127, -183, -765, -446, 9590, -129570, -92610
40147, -179, -811, -482, 74690, -261450, -31990
40167, -174, -847, -492, 117040, -324450, -14910
40187, -170, -846, -471, 80220, -271810, -61670
40207, -170, -819, -440, -15680, -161630, -135660
40227, -173, -804, -454, -100660, -95130, -178150
40247, -180, -813, -493, -111930, -141400, -152040
40267, -165, -782, -474, -48370, -251510, -91630
40287, -142, -726, -408, 11690, -300090, -70210
40307, -130, -685, -376, -10640, -251510, -94150
40327, -129, -689, -397, -106750, -173530, -115290
40347, -141, -741, -445, -199570, -130270, -103600
40367, -149, -822, -496, -231210, -127890, -68740
40387, -155, -916, -549, -200480, -148050, -27230
40407, -160, -1005, -576, -143990, -165620, 6860
40427, -164, -1095, -585, -115080, -140910, 9590
40447, -175, -1210, -651, -152460, -73990, -16660
40467, -199, -1336, -798, -233170, -46900, -22960
40487, -204, -1321, -816, -279440, -115080, 21420
40507, -183, -1188, -695, -222670, -210070, 70210
40527, -169, -1081, -590, -114310, -245420, 76370
40547, -171, -1046, -577, -76930, -201530, 47110
40567, -182, -1061, -640, -204470, -207620, 63980
40587, -185, -1078, -678, -186340, -238490, 94220
40607, -171, -1062, -661, -97720, -239540, 97440
40627, -156, -1022, -592, -16450, -192920, 69370
40647, -149, -967, -519, 910, -139720, 45500
40667, -149, -908, -499, -46480, -117040, 50400
40687, -152, -860, -510, -90230, -127050, 79590
40707, -150, -823, -514, -71680, -137200, 104860
40727, -138, -776, -496, -11130, -108290, 100940
40747, -128, -712, -451, 43120, -31710, 70770
40767, -122, -648, -401, 69580, 61180, 40530
40787, -119, -593, -366, 69230, 139580, 29330
40807, -127, -585, -369, 56140, 196070, 38080
40827, -139, -623, -409, 50330, 236950, 56560
40847, -158, -692, -471, 70140, 270900, 71820
40867, -179, -766, -536, 119000, 308910, 75810
40887, -203, -843, -584, 181580, 356300, 67760
40907, -219, -958, -625, 239260, 397880, 57400
40927, -229, -1162, -677, 267400, 415660, 54530
40947, -234, -1428, -782, 229670, 403130, 60130
40967, -219, -1488, -861, 157990, 337540, 77490
40987, -196, -1307, -779, 169680, 206360, 113540
41007, -188, -1123, -665, 256900, 86450, 140910
41027, -188, -1073, -639, 305830, 35770, 133840
41047, -193, -1063, -609, 294070, 53270, 93100
41067, -190, -1065, -569, 244090, 100660, 36750
41087, -193, -1131, -616, 189350, 93310, 13650
41107, -203, -1230, -707, 181370, 2100, 36050
41127, -210, -1278, -731, 219240, -89390, 47880
41147, -212, -1221, -670, 226660, -105420, 6230
41167, -200, -1093, -585, 180530, -93590, -53060
41187, -187, -965, -521, 130270, -123620, -82040
41207, -185, -877, -504, 113330, -202090, -72380
41227, -174, -791, -481, 124880, -276080, -56840
41247, -152, -700, -415, 130620, -283780, -74270
41267, -135, -620, -345, 96600, -224840, -119210
41287, -128, -573, -316, 33250, -164150, -147350
41307, -124, -548, -314, -21910, -146300, -136710
41327, -120, -536, -315, -45220, -161420, -102970
41347, -111, -536, -322, -45990, -175980, -68530
41367, -109, -551, -328, -41860, -172900, -40950
41387, -106, -577, -337, -48090, -144340, -23310
41407, -108, -614, -346, -75530, -90230, -16940
41427, -116, -675, -374, -119210, -30520, -10080
41447, -136, -794, -444, -158270, 3570, 12180
41467, -157, -965, -545, -179410, 5180, 47670
41487, -177, -1198, -690, -187110, -4830, 77420
41507, -193, -1425, -815, -185570, -8330, 88200
41527, -191, -1477, -816, -178220, -910, 76370
41547, -181, -1338, -714, -175840, -6930, 59080
41567, -190, -1218, -678, -180250, -73570, 80430
41587, -185, -1154, -686, -191520, -172970, 133280
41607, -174, -1122, -677, -196490, -215040, 157990
41627, -165, -1137, -673, -196700, -174020, 137830
41647, -170, -1214, -693, -194320, -106120, 103390
41667, -179, -1322, -740, -185920, -69720, 88760
41687, -192, -1384, -793, -173810, -89180, 105140
41707, -189, -1326, -775, -159530, -141680, 137480
41727, -173, -1168, -677, -141120, -165060, 146440
41747, -163, -1019, -579, -124320, -146300, 129150
41767, -155, -906, -521, -108710, -132440, 122220
41787, -147, -839, -495, -95830, -131950, 131110
41807, -141, -795, -483, -82110, -121870, 139860
41827, -133, -748, -461, -62020, -88690, 137550
41847, -124, -693, -429, -37730, -31220, 123130
41867, -121, -645, -401, -13650, 37030, 105840
41887, -120, -609, -389, 10220, 96530, 99330
41907, -124, -588, -389, 35630, 142030, 106470
41927, -131, -589, -405, 60550, 184940, 118440
41947, -147, -596, -428, 83650, 235690, 127820
41967, -162, -620, -457, 112560, 292670, 132300
41987, -176, -649, -478, 156660, 345170, 134960
42007, -187, -717, -502, 214480, 383810, 140490
42027, -202, -867, -560, 266210, 404670, 155260
42047, -222, -1124, -679, 283500, 409010, 178710
42067, -237, -1428, -839, 259210, 397950, 200410
42087, -227, -1585, -893, 220080, 364910, 212310
42107, -213, -1520, -833, 203700, 284550, 227430
42127, -207, -1364, -769, 214550, 142520, 264390
42147, -196, -1237, -702, 224700, 14560, 289380
42167, -189, -1152, -645, 218190, -33740, 267750
42187, -189, -1142, -623, 198800, -32480, 221200
42207, -197, -1230, -670, 179480, -39970, 185290
42227, -215, -1382, -773, 169050, -83160, 172410
42247, -227, -1472, -834, 163520, -139440, 162610
42267, -224, -1392, -758, 154140, -166320, 123970
42287, -221, -1230, -666, 139440, -170450, 60690
42307, -218, -1091, -618, 127610, -223020, 25760
42327, -209, -955, -560, 135940, -392070, 15260
42347, -188, -814, -489, 127680, -390040, -28560
42367, -168, -708, -423, 95760, -343770, -84420
42387, -158, -631, -371, 52500, -295330, -125720
42407, -149, -580, -344, 18480, -274190, -139370
42427, -145, -549, -330, 2660, -279020, -130340
42447, -136, -520, -312, -5670, -284760, -116060
42467, -124, -498, -304, -23870, -270060, -108640
42487, -111, -483, -294, -55440, -233870, -105980
42507, -103, -478, -288, -92330, -185850, -101290
42527, -99, -486, -282, -127890, -138530, -88760
42547, -96, -519, -303, -159600, -103950, -61670
42567, -108, -601, -353, -182280, -85540, -20580
42587, -123, -724, -430, -195160, -66500, 18760
42607, -144, -916, -533, -203490, -27510, 37800
42627, -168, -1215, -685, -217630, 30170, 31710
42647, -192, -1635, -897, -244930, 77070, 12390
42667, -204, -1883, -1055, -270200, 57820, 9520
42687, -199, -1622, -907, -248150, -60480, 46970
42707, -194, -1283, -714, -196280, -196840, 99610
42727, -177, -1109, -648, -191170, -266840, 130340
42747, -168, -1069, -636, -232050, -245420, 125510
42767, -162, -1154, -691, -276360, -174090, 98840
42787, -180, -1406, -844, -282940, -122290, 84140
42807, -188, -1639, -950, -231140, -110110, 85050
42827, -193, -1656, -910, -156100, -128660, 91280
42847, -193, -1430, -796, -127680, -178710, 111160
42867, -182, -1179, -689, -148190, -234080, 135100
42887, -169, -1005, -604, -148120, -263270, 153300
42907, -150, -870, -535, -111230, -255150, 158410
42927, -133, -764, -467, -66640, -206360, 144970
42947, -115, -683, -412, -35560, -133700, 125860
42967, -107, -629, -382, -21770, -61670, 116410
42987, -105, -599, -375, -18130, 350, 122360
43007, -105, -569, -379, -10990, 58730, 135660
43027, -111, -545, -384, 11060, 119700, 148260
43047, -116, -516, -388, 49560, 186200, 157780
43067, -131, -487, -390, 96950, 259070, 164990
43087, -142, -472, -406, 143780, 336000, 172410
43107, -162, -467, -414, 191170, 404110, 185430
43127, -179, -490, -438, 236320, 460390, 206290
43147, -207, -567, -479, 267540, 512330, 227920
43167, -216, -696, -518, 286090, 548310, 257250
43187, -237, -960, -635, 290920, 544040, 302820
43207, -270, -1407, -874, 270830, 496860, 360360
43227, -281, -1898, -1086, 223510, 448770, 389060
43247, -256, -1861, -1025, 167370, 393960, 381990
43267, -234, -1463, -770, 130480, 264950, 392490
43287, -220, -1179, -636, 107660, 101430, 421890
43307, -214, -1075, -620, 82320, -18760, 441000
43327, -207, -1095, -639, 61600, -46620, 416570
43347, -216, -1251, -697, 53410, -2450, 349510
43367, -232, -1527, -818, 35700, 55020, 274680
43387, -245, -1736, -909, -910, 64260, 219030
43407, -257, -1630, -861, -26530, -19670, 202160
43427, -253, -1358, -757, -31010, -179550, 218190
43447, -227, -1064, -604, -19880, -308980, 213850
43467, -199, -873, -494, -2940, -344540, 165620
43487, -182, -745, -422, -6650, -326410, 101570
43507, -177, -665, -383, -22960, -306600, 53760
43527, -173, -621, -368, -30660, -304290, 28000
43547, -167, -587, -357, -22400, -313740, 12250
43567, -160, -564, -348, -7700, -316190, -6860
43587, -151, -530, -324, 630, -292390, -40810
43607, -144, -498, -287, -5810, -240310, -89460
43627, -137, -476, -264, -28420, -182490, -135660
43647, -134, -479, -268, -59360, -148260, -159740
43667, -133, -509, -294, -86870, -143150, -158690
43687, -132, -548, -318, -106120, -141260, -151760
43707, -133, -607, -346, -123760, -116480, -157710
43727, -143, -704, -392, -145180, -69650, -173880
43747, -160, -852, -457, -168210, -15680, -192150
43767, -177, -1084, -558, -192360, 35840, -211120
43787, -196, -1464, -777, -224630, 70000, -226730
43807, -228, -1864, -1048, -259280, 47040, -219870
43827, -223, -1776, -990, -268170, -42420, -192920
43847, -203, -1385, -758, -244510, -138250, -183610
43867, -190, -1125, -648, -234920, -229810, -172060
43887, -175, -1050, -657, -276010, -309190, -140490
43907, -176, -1144, -735, -334460, -341670, -110460
43927, -179, -1333, -832, -363860, -327250, -92960
43947, -184, -1554, -926, -346150, -282450, -94150
43967, -195, -1674, -955, -296590, -241710, -100940
43987, -210, -1550, -889, -236810, -259630, -81060
44007, -207, -1294, -790, -199220, -345030, -26320
44027, -187, -1062, -668, -190260, -430780, 29540
44047, -158, -891, -563, -167860, -455630, 56770
44067, -138, -778, -490, -131740, -419440, 56980
44087, -121, -703, -441, -100450, -356440, 49700
44107, -103, -639, -399, -44450, -222180, 55300
44127, -94, -602, -380, -20720, -155680, 68460
44147, -85, -574, -375, 2030, -86940, 85610
44167, -87, -552, -371, 27440, -4760, 100170
44187, -91, -527, -373, 45010, 102620, 101990
44207, -101, -494, -374, 60060, 217630, 101500
44227, -123, -478, -384, 85610, 320250, 110460
44247, -145, -469, -399, 121800, 409010, 125370
44267, -167, -468, -423, 170940, 479780, 145740
44287, -184, -482, -452, 230860, 529060, 175840
44307, -205, -537, -485, 287560, 562730, 215740
44327, -237, -709, -582, 319340, 592270, 257460
44347, -267, -1012, -728, 324310, 615370, 293930
44367, -292, -1516, -942, 306320, 611380, 326830
44387, -282, -1928, -1085, 253120, 561190, 353290
44407, -248, -1766, -969, 184940, 419090, 395430
44427, -236, -1419, -814, 143570, 212030, 459270
44447, -215, -1172, -694, 145250, 88970, 476280
44467, -204, -1060, -621, 159530, 71330, 444920
44487, -203, -1056, -585, 145110, 108710, 389340
44507, -219, -1192, -630, 92960, 143500, 338940
44527, -241, -1475, -790, 21350, 131670, 310520
44547, -262, -1775, -1003, -32550, 71540, 291200
44567, -247, -1630, -881, -26460, -210, 255570
44587, -228, -1281, -647, 14210, -80780, 213710
44607, -216, -1012, -525, 11270, -181020, 193690
44627, -208, -848, -467, -24220, -261450, 180740
44647, -191, -740, -432, -50260, -293930, 153370
44667, -178, -664, -400, -55160, -283920, 107520
44687, -166, -610, -364, -47810, -248500, 51170
44707, -160, -559, -326, -33460, -209930, -5040
44727, -158, -519, -291, -17220, -184450, -51590
44747, -152, -498, -271, -7980, -179550, -83160
44767, -151, -499, -280, -10990, -189210, -101850
44787, -149, -520, -302, -26180, -194670, -117250
44807, -149, -553, -323, -49490, -177520, -140910
44827, -151, -599, -341, -80290, -133350, -176540
44847, -156, -657, -365, -113820, -76020, -217140
44867, -166, -739, -397, -135660, -31850, -247730
44887, -173, -852, -450, -136150, -24080, -257390
44907, -187, -1024, -538, -128450, -53340, -246820
44927, -201, -1237, -664, -144480, -89810, -234710
44947, -211, -1407, -770, -194740, -107170, -241080
44967, -209, -1434, -808, -247100, -122080, -258370
44987, -205, -1305, -755, -264040, -174930, -254170
45007, -196, -1158, -674, -245140, -260890, -221620
45027, -183, -1064, -632, -231070, -334460, -184100
45047, -171, -1060, -657, -265510, -358260, -159880
45067, -174, -1150, -728, -324590, -338870, -146090
45087, -181, -1295, -812, -346640, -309330, -131810
45107, -190, -1430, -866, -301770, -299600, -111020
45127, -191, -1433, -829, -219030, -311920, -86310
45147, -188, -1304, -745, -162330, -337120, -61810
45167, -186, -1167, -710, -166040, -373730, -27440
45187, -174, -1051, -669, -184310, -404040, 10920
45207, -151, -932, -583, -157220, -397110, 31290
45227, -128, -805, -496, -96250, -349650, 28490
45247, -109, -718, -430, -41160, -284270, 20160
45267, -96, -654, -388, -11130, -219030, 22260
45287, -88, -616, -375, -6160, -157500, 36750
45307, -88, -597, -379, -12740, -94150, 58870
45327, -92, -588, -393, -13790, -20440, 78680
45347, -102, -579, -405, 140, 68740, 88410
45367, -116, -564, -409, 32060, 169680, 87780
45387, -133, -557, -413, 79170, 269080, 85470
45407, -152, -568, -427, 130270, 355040, 92260
45427, -174, -613, -464, 167510, 426860, 109060
45447, -204, -719, -528, 187250, 484120, 132650
45467, -228, -881, -621, 198870, 526260, 158270
45487, -237, -1099, -730, 215460, 549150, 183260
45507, -239, -1338, -823, 238700, 546000, 208390
45527, -235, -1476, -861, 261100, 501200, 243740
45547, -223, -1411, -810, 259490, 416640, 285950
45567, -208, -1261, -731, 232400, 320250, 317940
45587, -194, -1136, -669, 206640, 236320, 334530
45607, -187, -1064, -615, 206360, 174440, 338800
45627, -188, -1055, -588, 218680, 139440, 332360
45647, -197, -1117, -615, 209860, 125720, 317100
45667, -212, -1264, -688, 167370, 118440, 297360
45687, -220, -1393, -763, 113120, 103810, 274470
45707, -220, -1403, -756, 76790, 75320, 246750
45727, -211, -1269, -663, 69860, 25970, 219590
45747, -199, -1091, -560, 78680, -46900, 200130
45767, -191, -942, -502, 71750, -123480, 185430
45787, -179, -825, -460, 44730, -178780, 167860
45807, -165, -728, -410, 21770, -199010, 138460
45827, -156, -655, -365, 15050, -187880, 97020
45847, -149, -603, -335, 16380, -165480, 54670
45867, -145, -572, -316, 12320, -135870, -5320
45887, -142, -555, -309, 3850, -122150, -28420
45907, -138, -557, -311, -11340, -101430, -52710
45927, -139, -572, -320, -31990, -72380, -78890
45947, -146, -605, -338, -50820, -38010, -105840
45967, -149, -651, -356, -62510, -4410, -132370
45987, -155, -720, -386, -69930, 22400, -155400
46007, -165, -816, -430, -79660, 39690, -172830
46027, -177, -942, -490, -95410, 48510, -187810
46047, -189, -1095, -566, -115640, 45500, -201460
46067, -200, -1256, -660, -140140, 20650, -209090
46087, -207, -1367, -742, -164080, -24850, -212030
46107, -203, -1332, -729, -175910, -75250, -218260
46127, -194, -1209, -659, -180180, -124390, -223580
46147, -178, -1091, -609, -199920, -170030, -219940
46167, -172, -1046, -600, -234150, -201180, -210630
46187, -168, -1080, -634, -263620, -211960, -201460
46207, -173, -1171, -689, -280910, -203840, -197750
46227, -175, -1263, -737, -282730, -189980, -196770
46247, -180, -1305, -754, -264810, -199990, -184170
46267, -184, -1273, -739, -237860, -246540, -150570
46287, -180, -1178, -701, -219100, -303030, -108920
46307, -170, -1067, -648, -213500, -332220, -79100
46327, -155, -950, -587, -207270, -329630, -62020
46347, -142, -858, -532, -188720, -308560, -49350
46367, -130, -789, -489, -157150, -282660, -33810
46387, -119, -732, -451, -115360, -254590, -14560
46407, -106, -682, -421, -74620, -215950, 2450
46427, -96, -642, -400, -44380, -161420, 15330
46447, -89, -613, -388, -24220, -92120, 25480
46467, -90, -592, -383, -7210, -11830, 32970
46487, -94, -577, -381, 13440, 72940, 39060
46507, -104, -567, -386, 43470, 153580, 48160
46527, -119, -580, -407, 83230, 224420, 62580
46547, -137, -614, -440, 130340, 285460, 80220
46567, -158, -673, -475, 179620, 340340, 98560
46587, -180, -771, -525, 217980, 390320, 117250
46607, -199, -927, -599, 235970, 430710, 136360
46627, -215, -1156, -693, 236740, 448140, 157850
46647, -217, -1418, -814, 225750, 426300, 185360
46667, -214, -1561, -891, 210280, 356580, 220360
46687, -203, -1460, -828, 209790, 254240, 255640
46707, -187, -1258, -709, 222530, 158200, 276080
46727, -174, -1102, -620, 224630, 94360, 278390
46747, -169, -1017, -576, 215180, 61810, 269570
46767, -171, -1019, -565, 201110, 53550, 252980
46787, -183, -1115, -605, 181930, 55720, 232050
46807, -197, -1278, -687, 155820, 49350, 213710
46827, -211, -1420, -761, 123200, 30030, 194460
46847, -212, -1410, -751, 90580, -980, 168420
46867, -204, -1247, -665, 75320, -58870, 147280
46887, -190, -1049, -558, 80780, -139650, 137270
46907, -177, -886, -477, 88340, -207900, 126630
46927, -162, -763, -419, 78820, -239960, 106680
46947, -151, -674, -377, 53970, -235550, 77140
46967, -142, -612, -344, 23660, -206150, 43120
46987, -133, -573, -326, -140, -172480, 14280
47007, -130, -554, -319, -12320, -145740, -5740
47027, -127, -544, -309, -14280, -121800, -21700
47047, -124, -552, -308, -13930, -93730, -37660
47067, -124, -575, -317, -18970, -62090, -52220
47087, -129, -620, -335, -35560, -26600, -64960
47107, -136, -685, -366, -66920, 17150, -79730
47127, -147, -770, -412, -104720, 62510, -95270
47147, -159, -879, -474, -131390, 92330, -104930
47167, -173, -1018, -551, -135240, 96950, -106330
47187, -186, -1165, -619, -126140, 91420, -110530
47207, -194, -1293, -670, -124460, 92820, -128450
47227, -191, -1341, -700, -142030, 88410, -151060
47247, -187, -1308, -705, -174230, 54110, -161070
47267, -184, -1238, -685, -197540, -6090, -156310
47287, -178, -1173, -651, -196280, -65240, -148330
47307, -170, -1133, -618, -193620, -89530, -155750
47327, -165, -1144, -624, -211820, -77910, -177660
47347, -170, -1211, -678, -242760, -70070, -189280
47367, -177, -1290, -741, -261590, -92400, -176330
47387, -179, -1311, -753, -252840, -130270, -154630
47407, -171, -1222, -687, -223720, -159670, -141190
47427, -160, -1072, -611, -205310, -176610, -135100
47447, -153, -957, -564, -210350, -196910, -119910
47467, -148, -873, -531, -213290, -227500, -87780
47487, -134, -808, -500, -196420, -249130, -53410
47507, -120, -748, -459, -165690, -238980, -34090
47527, -106, -687, -416, -130620, -197540, -29960
47547, -100, -641, -386, -99610, -142660, -28770
47567, -96, -613, -372, -75530, -92260, -18270
47587, -95, -598, -374, -51940, -50260, 3290
47607, -96, -590, -382, -21560, -10430, 28000
47627, -102, -587, -391, 16940, 36400, 48510
47647, -114, -595, -407, 99960, 167090, 66780
47667, -129, -618, -418, 140840, 235970, 71330
47687, -141, -662, -436, 179900, 288610, 83580
47707, -152, -741, -465, 206920, 318850, 107800
47727, -167, -887, -531, 213780, 326690, 141610
47747, -185, -1103, -644, 204680, 313250, 176890
47767, -204, -1350, -788, 191380, 286090, 201670
47787, -205, -1491, -849, 188860, 250600, 210140
47807, -196, -1439, -786, 200410, 189280, 218260
47827, -186, -1295, -698, 203700, 97370, 240170
47847, -178, -1169, -644, 187110, 17430, 256410
47867, -171, -1087, -616, 171010, -18760, 250460
47887, -168, -1064, -598, 167160, -15890, 223580
47907, -172, -1098, -595, 165690, 700, 190680
47927, -182, -1195, -634, 154000, -700, 168910
47947, -195, -1313, -697, 127120, -25830, 157290
47967, -201, -1353, -728, 93940, -60620, 141750
47987, -194, -1255, -686, 77770, -104020, 122640
48007, -182, -1083, -586, 88200, -151480, 103390
48027, -169, -919, -489, 102410, -193060, 87570
48047, -155, -799, -433, 97930, -223090, 78050
48067, -146, -712, -392, 74830, -227360, 65800
48087, -133, -642, -364, 42910, -199920, 44800
48107, -123, -598, -343, 14140, -155610, 21910
48127, -118, -566, -328, -1890, -113120, 6020
48147, -117, -547, -317, -6160, -75530, -3710
48167, -113, -544, -310, -3150, -38640, -10850
48187, -114, -554, -309, -2310, 490, -17780
48207, -120, -589, -324, -16100, 44870, -25270
48227, -132, -663, -361, -48650, 95690, -34790
48247, -147, -765, -417, -88270, 149520, -48580
48267, -166, -895, -487, -114310, 192920, -65030
48287, -182, -1051, -570, -117040, 213150, -79030
48307, -196, -1213, -654, -101780, 209510, -91140
48327, -201, -1332, -684, -84350, 187670, -104860
48347, -199, -1338, -690, -87710, 148610, -117600
48367, -192, -1262, -672, -119420, 99050, -128870
48387, -183, -1161, -626, -146860, 55510, -142940
48407, -178, -1086, -588, -148050, 26390, -160650
48427, -176, -1065, -571, -141330, 13650, -180880
48447, -175, -1111, -585, -145180, 14980, -203490
48467, -181, -1212, -642, -165340, 16590, -221270
48487, -187, -1322, -726, -195160, 1890, -227220
48507, -191, -1355, -756, -207130, -34860, -223020
48527, -186, -1277, -698, -185290, -90370, -211120
48547, -174, -1111, -614, -161350, -148750, -196490
48567, -161, -971, -547, -164850, -191590, -184030
48587, -154, -868, -511, -185080, -220220, -167650
48607, -145, -794, -486, -196070, -240520, -144060
48627, -131, -733, -456, -184100, -245700, -120960
48647, -121, -679, -419, -147980, -235480, -102130
48667, -110, -636, -389, -102900, -213150, -86100
48687, -101, -610, -372, -66500, -180390, -70140
48707, -97, -597, -365, -43190, -137900, -54180
48727, -96, -596, -366, -22680, -90720, -36960
48747, -96, -602, -378, 3920, -42910, -19460
48767, -105, -630, -400, 39970, 5740, -3290
48787, -118, -675, -426, 84420, 57190, 9310
48807, -128, -746, -456, 132510, 109480, 18690
48827, -141, -846, -494, 172270, 157220, 28000
48847, -154, -976, -547, 190330, 193270, 41860
48867, -168, -1144, -641, 184730, 207830, 61530
48887, -179, -1326, -755, 172270, 192570, 86100
48907, -186, -1417, -814, 175070, 153300, 108850
48927, -179, -1344, -752, 198730, 111300, 118580
48947, -166, -1205, -654, 226520, 70980, 118720
48967, -160, -1115, -608, 233940, 22680, 124390
48987, -161, -1090, -622, 218750, -23730, 134470
49007, -163, -1103, -634, 205520, -48090, 135030
49027, -167, -1132, -632, 206640, -39060, 114520
49047, -170, -1190, -640, 209790, -14280, 83300
49067, -177, -1252, -665, 203490, -13300, 66430
49087, -181, -1271, -686, 182980, -45290, 66850
49107, -176, -1193, -660, 152110, -87150, 68110
49127, -164, -1058, -592, 133560, -122150, 60690
49147, -154, -920, -507, 138530, -142800, 45080
49167, -137, -806, -436, 149030, -151270, 29680
49187, -126, -726, -395, 143570, -153580, 22820
49207, -116, -662, -366, 118440, -143780, 22120
49227, -111, -625, -353, 80780, -113680, 19810
49247, -109, -602, -343, 43750, -70280, 17290
49267, -106, -586, -338, 19040, -25480, 18480
49287, -107, -582, -334, 8190, 16660, 23170
49307, -113, -594, -337, 3850, 59920, 27650
49327, -122, -633, -352, -3290, 105910, 30520
49347, -138, -698, -387, -22400, 154000, 31780
49367, -153, -792, -445, -56840, 202790, 29890
49387, -170, -898, -508, -94780, 249830, 22400
49407, -187, -1015, -565, -104510, 303380, -4830
49427, -202, -1154, -631, -83580, 304290, -21630
49447, -210, -1249, -665, -72030, 299810, -45500
49467, -209, -1298, -676, -77280, 282100, -70420
49487, -206, -1305, -684, -95830, 242760, -88620
49507, -202, -1275, -684, -107170, 195510, -105350
49527, -200, -1226, -659, -94850, 155750, -127750
49547, -197, -1193, -632, -79030, 128660, -155470
49567, -195, -1184, -617, -83230, 112840, -186410
49587, -192, -1198, -618, -104580, 91770, -210210
49607, -190, -1218, -650, -128940, 52080, -218540
49627, -189, -1218, -663, -137900, 1400, -217840
49647, -186, -1177, -639, -126490, -45710, -217630
49667, -179, -1104, -591, -120960, -82180, -220850
49687, -170, -1011, -546, -137970, -113470, -220500
49707, -160, -917, -512, -158900, -154070, -204820
49727, -154, -840, -490, -164290, -198590, -177730
49747, -147, -776, -463, -151270, -226100, -153440
49767, -136, -715, -427, -126490, -229600, -138740
49787, -124, -661, -391, -100450, -218680, -126560
49807, -113, -619, -370, -80710, -204050, -108990
49827, -109, -593, -360, -63700, -187600, -85400
49847, -103, -580, -359, -38500, -166320, -61390
49867, -100, -583, -368, 0, -137970, -41440
49887, -101, -614, -388, 46970, -101290, -26810
49907, -109, -662, -414, 96880, -54250, -18760
49927, -115, -724, -438, 144620, -2940, -13510
49947, -129, -820, -474, 177940, 44170, -6860
49967, -146, -968, -540, 185570, 82180, 2380
49987, -166, -1207, -664, 171570, 102270, 13720
50007, -185, -1508, -856, 158970, 88830, 28840
50027, -191, -1638, -936, 174650, 45850, 40320
50047, -175, -1432, -789, 219870, -8540, 40950
50067, -163, -1212, -664, 255500, -82670, 51030
50087, -162, -1095, -627, 253330, -147280, 63840
50107, -163, -1082, -639, 236320, -156800, 50610
50127, -167, -1116, -648, 228270, -116060, 9730
50147, -172, -1195, -668, 226450, -63280, -37240
50167, -174, -1310, -714, 226240, -49350, -59990
50187, -189, -1399, -760, 227290, -92260, -51240
50207, -190, -1359, -760, 210840, -151760, -39830
50227, -178, -1191, -683, 177170, -181370, -53410
50247, -162, -999, -570, 166180, -187600, -80150
50267, -145, -853, -480, 176540, -196210, -94780
50287, -130, -753, -427, 176890, -205660, -93590
50307, -111, -665, -375, 158690, -200760, -84980
50327, -96, -609, -347, 123760, -173110, -75740
50347, -89, -572, -332, 80640, -129290, -62930
50367, -83, -535, -310, 43470, -74970, -47530
50387, -80, -508, -289, 16520, -15750, -31080
50407, -81, -506, -290, -6230, 35770, -6370
50427, -88, -532, -311, -24430, 71260, 32200
50447, -98, -563, -331, -34440, 101220, 73570
50467, -110, -610, -355, -45990, 144410, 101780
50487, -134, -698, -407, -78890, 206010, 114170
50507, -164, -836, -501, -133630, 276290, 115010
50527, -191, -1018, -594, -178850, 343560, 101850
50547, -205, -1223, -675, -188300, 393680, 76860
50567, -218, -1482, -811, -175350, 404180, 58870
50587, -228, -1642, -901, -170170, 370370, 52710
50607, -217, -1535, -822, -171850, 324100, 35210
50627, -198, -1344, -717, -176260, 285950, -420
50647, -190, -1220, -656, -181160, 236040, -25690
50667, -187, -1183, -640, -171990, 185080, -40040
50687, -193, -1227, -664, -168630, 168840, -69020
50707, -196, -1310, -699, -181020, 185010, -114240
50727, -192, -1388, -723, -187460, 196210, -156590
50747, -190, -1423, -750, -181650, 164780, -174510
50767, -190, -1354, -734, -172200, 78820, -158340
50787, -177, -1193, -649, -161630, -15400, -136640
50807, -160, -1016, -556, -161560, -63770, -140770
50827, -147, -865, -476, -172550, -84280, -151690
50847, -138, -754, -425, -176610, -108080, -146090
50867, -128, -685, -398, -168000, -138950, -122640
50887, -119, -637, -381, -149380, -165410, -90930
50907, -111, -591, -358, -123060, -173180, -63210
50927, -100, -551, -336, -94780, -155750, -46410
50947, -97, -520, -319, -69650, -119700, -36120
50967, -95, -512, -315, -43750, -80430, -23590
50987, -96, -524, -325, -10290, -48090, -5040
51007, -97, -547, -342, 34510, -24150, 17850
51027, -101, -591, -375, 87360, -3990, 42210
51047, -112, -654, -409, 140490, 18060, 65660
51067, -129, -758, -455, 180530, 56840, 79380
51087, -147, -933, -523, 197330, 112420, 81340
51107, -171, -1226, -661, 190400, 161700, 81690
51127, -187, -1580, -872, 166810, 168980, 95130
51147, -195, -1732, -981, 144760, 119000, 123480
51167, -189, -1549, -861, 160790, 25130, 153930
51187, -172, -1276, -696, 228200, -120890, 155750
51207, -161, -1134, -630, 211610, -147210, 138180
51227, -160, -1089, -613, 196910, -156660, 121100
51247, -163, -1139, -655, 195650, -153720, 101500
51267, -176, -1272, -724, 207130, -141540, 76510
51287, -189, -1439, -791, 214900, -125930, 43470
51307, -196, -1529, -823, 191870, -121240, 8050
51327, -190, -1431, -778, 158690, -158480, -9590
51347, -189, -1242, -700, 159880, -244580, 1960
51367, -175, -1040, -602, 185640, -311990, 7700
51387, -155, -867, -503, 193970, -313670, -16380
51407, -131, -725, -415, 169330, -266630, -53410
51427, -113, -645, -365, 123760, -206220, -78750
51447, -104, -602, -342, 79940, -157220, -80990
51467, -98, -577, -333, 54320, -125790, -63420
51487, -93, -564, -325, 45780, -101780, -36470
51507, -87, -552, -319, 38500, -67620, -12320
51527, -89, -546, -313, 19810, -14770, 3640
51547, -93, -547, -312, -11830, 53200, 12040
51567, -101, -562, -319, -48580, 122780, 18760
51587, -112, -594, -335, -83860, 182280, 28630
51607, -129, -655, -370, -112070, 224420, 43820
51627, -150, -754, -439, -130970, 251090, 60200
51647, -175, -927, -537, -141610, 276010, 66290
51667, -203, -1131, -645, -145600, 316610, 46690
51687, -224, -1354, -739, -146860, 372540, -1470
51707, -218, -1530, -784, -148400, 399350, -49770
51727, -209, -1576, -817, -156520, 340480, -59500
51747, -204, -1471, -796, -165760, 219240, -39620
51767, -199, -1327, -734, -161630, 130480, -40460
51787, -193, -1213, -658, -153650, 120680, -85190
51807, -187, -1159, -597, -152740, 152670, -148050
51827, -180, -1202, -607, -165480, 164150, -190050
51847, -190, -1327, -711, -187880, 124040, -194040
51867, -197, -1444, -797, -199360, 54180, -180110
51887, -197, -1408, -768, -186760, -4480, -179130
51907, -180, -1240, -659, -169470, -39970, -194180
51927, -168, -1060, -568, -171570, -81550, -199710
51947, -161, -924, -518, -186900, -145530, -177310
51967, -150, -825, -488, -197890, -205450, -143010
51987, -139, -742, -452, -192010, -232470, -118370
52007, -124, -669, -406, -171640, -224840, -107310
52027, -110, -616, -378, -144480, -201110, -98280
52047, -104, -558, -327, -115570, -177380, -80990
52067, -97, -551, -345, -95970, -158340, -53340
52087, -101, -548, -350, -65450, -145670, -17710
52107, -92, -541, -355, -11690, -119700, 7420
52127, -94, -536, -348, 43960, -69230, 12110
52147, -99, -558, -357, 91630, 1120, 8540
52167, -110, -595, -383, 130340, 63910, 13370
52187, -117, -659, -405, 170940, 111580, 26040
52207, -127, -767, -443, 209510, 144130, 45710
52227, -152, -988, -546, 223650, 164150, 72450
52247, -185, -1352, -769, 199080, 169750, 101780
52267, -208, -1732, -1002, 167300, 159180, 117390
52287, -188, -1743, -929, 177310, 142660, 105980
52307, -176, -1445, -762, 224140, 76020, 105420
52327, -167, -1225, -670, 252210, -62510, 149030
52347, -164, -1110, -647, 241640, -160230, 173740
52367, -160, -1070, -637, 223300, -164360, 151550
52387, -165, -1104, -634, 223090, -108780, 96950
52407, -169, -1243, -665, 234640, -49420, 42980
52427, -187, -1480, -773, 236390, -39200, 20370
52447, -207, -1638, -897, 209020, -90860, 30380
52467, -200, -1484, -843, 165550, -159180, 35280
52487, -181, -1187, -672, 152320, -199430, 8330
52507, -162, -950, -527, 181720, -229880, -21910
52527, -141, -782, -433, 207550, -263970, -33250
52547, -126, -691, -389, 195090, -279020, -36890
52567, -111, -630, -359, 150430, -260330, -42350
52587, -103, -589, -343, 95620, -212310, -50820
52607, -99, -564, -328, 49280, -150360, -57190
52627, -97, -547, -315, 20720, -89110, -58310
52647, -92, -536, -300, 11900, -40320, -49560
52667, -91, -533, -292, 13930, -6230, -30100
52687, -93, -548, -297, 8750, 20510, -2100
52707, -102, -583, -322, -19390, 53200, 26390
52727, -114, -636, -360, -67410, 98000, 48300
52747, -135, -715, -414, -116340, 153020, 58240
52767, -151, -808, -464, -149730, 212240, 56070
52787, -171, -939, -523, -161280, 267680, 44520
52807, -191, -1135, -609, -154420, 307790, 30870
52827, -212, -1400, -747, -145810, 325780, 19040
52847, -219, -1605, -859, -160790, 329420, 910
52867, -207, -1585, -848, -194180, 320460, -30450
52887, -197, -1419, -752, -199990, 268590, -52360
52907, -186, -1276, -676, -173390, 178430, -52360
52927, -182, -1208, -644, -154560, 105980, -56210
52947, -179, -1194, -637, -204610, 112630, -133350
52967, -178, -1242, -660, -229040, 130130, -172900
52987, -180, -1310, -699, -219240, 95410, -177870
53007, -187, -1365, -736, -188790, 21490, -158760
53027, -185, -1343, -726, -171570, -43330, -146930
53047, -175, -1229, -667, -187530, -74760, -154770
53067, -161, -1070, -590, -211120, -95550, -162540
53087, -153, -929, -525, -209440, -132230, -149520
53107, -145, -825, -477, -181160, -179970, -118790
53127, -132, -735, -434, -146020, -209020, -90230
53147, -122, -662, -387, -120610, -205590, -72660
53167, -109, -599, -350, -114170, -178990, -59640
53187, -101, -568, -350, -116900, -149870, -40110
53207, -101, -549, -346, -82530, -122220, -16240
53227, -92, -514, -332, -24990, -91070, 280
53247, -88, -495, -319, 40740, -51240, 11970
53267, -90, -511, -336, 102970, -10920, 28000
53287, -98, -541, -353, 154350, 31780, 43960
53307, -110, -598, -382, 192220, 89460, 50120
53327, -122, -693, -428, 204820, 153720, 53130
53347, -153, -859, -502, 203560, 209510, 61390
53367, -168, -1117, -605, 193550, 240100, 73430
53387, -183, -1538, -840, 175350, 207760, 103810
53407, -211, -1890, -1080, 170870, 115850, 147700
53427, -187, -1634, -893, 201950, 36330, 152950
53447, -176, -1310, -696, 236880, -34930, 145600
53467, -161, -1128, -629, 230300, -111300, 151480
53487, -160, -1051, -601, 217280, -150080, 147910
53507, -156, -1051, -606, 218260, -143500, 125090
53527, -170, -1148, -656, 219100, -110040, 87570
53547, -182, -1320, -714, 217700, -70140, 46060
53567, -193, -1538, -802, 205870, -60270, 15330
53587, -207, -1607, -874, 168770, -109830, 10640
53607, -197, -1386, -783, 142240, -193620, 13160
53627, -179, -1072, -604, 165900, -265510, 4270
53647, -158, -865, -488, 194880, -304990, -11760
53667, -138, -727, -413, 185780, -302120, -35840
53687, -117, -632, -356, 148120, -267050, -58590
53707, -106, -577, -327, 101360, -221970, -69090
53727, -100, -550, -320, 59080, -181720, -62300
53747, -96, -539, -320, 31150, -141610, -48160
53767, -89, -531, -310, 19320, -95060, -35630
53787, -87, -526, -299, 14140, -42070, -25760
53807, -88, -535, -297, 2870, 9730, -10780
53827, -98, -566, -314, -23730, 57960, 10500
53847, -109, -614, -344, -61180, 104720, 33180
53867, -121, -678, -383, -98700, 151200, 51590
53887, -140, -770, -440, -131180, 197190, 63490
53907, -162, -894, -515, -155820, 244300, 64260
53927, -185, -1048, -593, -164360, 291830, 50680
53947, -199, -1247, -670, -154980, 330820, 26670
53967, -210, -1474, -775, -150850, 346500, 2730
53987, -210, -1597, -857, -172270, 329700, -17080
54007, -200, -1511, -817, -192430, 278530, -31430
54027, -190, -1350, -730, -183960, 208880, -40110
54047, -185, -1235, -665, -162750, 151200, -51450
54067, -182, -1190, -625, -151690, 128590, -77210
54087, -181, -1228, -642, -166530, 138740, -118160
54107, -185, -1308, -694, -196280, 147770, -154420
54127, -186, -1370, -734, -209580, 125090, -170730
54147, -187, -1344, -719, -191030, 68320, -168000
54167, -179, -1242, -662, -164780, 560, -159040
54187, -167, -1115, -599, -160440, -52850, -156800
54207, -156, -988, -543, -179270, -85470, -160090
54227, -148, -881, -500, -197400, -113680, -155400
54247, -141, -795, -463, -192080, -146930, -136220
54267, -129, -715, -419, -164500, -172760, -112910
54287, -116, -636, -362, -131950, -179060, -93940
54307, -104, -593, -349, -108360, -168280, -76300
54327, -102, -563, -344, -102340, -150150, -55160
54347, -100, -555, -350, -84490, -135100, -26600
54367, -96, -543, -350, -47460, -108850, -4900
54387, -94, -529, -337, 3990, -66850, 3710
54407, -97, -536, -343, 63770, -16310, 7980
54427, -103, -565, -356, 117810, 28840, 17220
54447, -108, -630, -392, 165690, 67690, 31780
54467, -126, -746, -432, 202440, 104230, 47880
54487, -149, -955, -527, 217210, 142520, 63350
54507, -179, -1313, -731, 199850, 171430, 79590
54527, -194, -1654, -926, 165550, 172060, 95410
54547, -189, -1768, -974, 156660, 136080, 107590
54567, -187, -1593, -864, 192360, 56140, 122640
54587, -174, -1331, -723, 232470, -54250, 145110
54607, -164, -1159, -646, 236250, -130760, 145880
54627, -160, -1093, -630, 214480, -160370, 128240
54647, -160, -1117, -645, 204120, -161070, 103180
54667, -170, -1227, -682, 217910, -144620, 72170
54687, -185, -1400, -756, 235060, -124600, 41300
54707, -193, -1513, -817, 221550, -115920, 14560
54727, -190, -1417, -787, 154070, -182070, -15120
54747, -184, -1205, -692, 169750, -258090, -9730
54767, -167, -985, -567, 202230, -299950, -19110
54787, -144, -811, -457, 203980, -290850, -45360
54807, -121, -693, -390, 168070, -255360, -67340
54827, -110, -622, -354, 115640, -210140, -74690
54847, -99, -579, -335, 70280, -163800, -69020
54867, -91, -555, -326, 46270, -120960, -53270
54887, -86, -535, -313, 43330, -84000, -29190
54907, -80, -517, -300, 43400, -42840, -3710
54927, -80, -510, -295, 28070, 12880, 16660
54947, -89, -524, -299, -7910, 82600, 31360
54967, -101, -558, -317, -53620, 152460, 45850
54987, -118, -619, -348, -97650, 208670, 63140
55007, -138, -715, -415, -132860, 249480, 80990
55027, -161, -854, -502, -152040, 284760, 89740
55047, -188, -1035, -603, -151970, 325430, 79030
55067, -214, -1250, -699, -142310, 370580, 46690
55087, -223, -1454, -774, -140980, 403970, 3430
55107, -215, -1554, -803, -151970, 388080, -26040
55127, -205, -1503, -800, -167720, 305690, -26530
55147, -201, -1370, -751, -169470, 211680, -23660
55167, -195, -1252, -672, -149800, 169190, -50470
55187, -195, -1192, -626, -133630, 178220, -103180
55207, -194, -1225, -622, -141400, 201180, -158410
55227, -190, -1336, -684, -166250, 194600, -191240
55247, -197, -1462, -782, -184310, 141190, -194950
55267, -201, -1482, -809, -178010, 65310, -188440
55287, -192, -1342, -714, -150780, -420, -192080
55307, -177, -1155, -603, -140840, -48650, -204120
55327, -165, -1004, -539, -164150, -95060, -205170
55347, -153, -893, -502, -191660, -144830, -189070
55367, -147, -802, -470, -197120, -186550, -164780
55387, -134, -726, -430, -180250, -206920, -144270
55407, -119, -634, -366, -157220, -202580, -130550
55427, -111, -606, -370, -150500, -185920, -115150
55447, -117, -592, -366, -129290, -179690, -85260
55467, -101, -557, -350, -81760, -169120, -59990
55487, -92, -524, -317, -30800, -139440, -50050
55507, -90, -514, -313, 8960, -97930, -38500
55527, -97, -531, -334, 42490, -67690, -14280
55547, -102, -560, -360, 88830, -41720, 8750
55567, -102, -602, -389, 143500, -5320, 17150
55587, -117, -691, -444, 189350, 50540, 15470
55607, -144, -829, -492, 219520, 119630, 11550
55627, -153, -1104, -576, 234010, 175140, 9100
55647, -182, -1564, -824, 219170, 168840, 32270
55667, -210, -1963, -1139, 170240, 95690, 78680
55687, -184, -1766, -1008, 157990, 12600, 94850
55707, -176, -1403, -755, 240030, -57260, 82460
55727, -157, -1175, -650, 285600, -127330, 77630
55747, -162, -1085, -607, 275240, -185080, 76090
55767, -160, -1093, -634, 248500, -191380, 58030
55787, -175, -1197, -709, 219940, -157780, 17990
55807, -182, -1328, -746, 218820, -110180, -28770
55827, -188, -1496, -805, 245490, -91560, -64330
55847, -201, -1546, -843, 242970, -130900, -68250
55867, -189, -1339, -759, 203700, -204470, -59710
55887, -174, -1083, -634, 176120, -261380, -66990
55907, -152, -887, -531, 180670, -287630, -82880
55927, -130, -744, -443, 194600, -285880, -100450
55947, -108, -639, -365, 193340, -257250, -116340
55967, -89, -577, -324, 161910, -212660, -121170
55987, -80, -546, -314, 108640, -167860, -105070
56007, -74, -527, -315, 56910, -125230, -73010
56027, -68, -505, -304, 25480, -78470, -37100
56047, -69, -490, -295, 11620, -21560, -5110
56067, -73, -487, -298, 3640, 39060, 27650
56087, -83, -501, -307, -4130, 97650, 64610
56107, -96, -522, -317, -14840, 157220, 100310
56127, -116, -569, -348, -38220, 220920, 130200
56147, -146, -666, -421, -83020, 287000, 155050
56167, -185, -815, -523, -139930, 355740, 167650
56187, -218, -1023, -639, -180040, 428750, 156240
56207, -245, -1327, -774, -180110, 497420, 121170
56227, -261, -1727, -952, -152180, 540470, 79170
56247, -255, -1883, -1012, -132510, 533960, 46900
56267, -226, -1608, -855, -131530, 469140, 24920
56287, -208, -1308, -720, -139650, 370020, 6790
56307, -207, -1186, -663, -132440, 274610, -6510
56327, -213, -1150, -621, -103320, 233730, -40740
56347, -217, -1211, -623, -77560, 258580, -108430
56367, -215, -1363, -690, -77980, 296870, -178710
56387, -212, -1519, -775, -93520, 286930, -218540
56407, -215, -1558, -831, -102970, 213640, -223090
56427, -212, -1412, -760, -97860, 94990, -206360
56447, -191, -1167, -607, -80570, -10570, -201600
56467, -171, -955, -493, -79030, -59920, -227990
56487, -158, -810, -437, -142240, -146160, -234710
56507, -146, -701, -402, -156450, -195370, -206850
56527, -137, -633, -376, -149800, -227430, -178360
56547, -127, -592, -363, -132230, -239750, -153930
56567, -116, -539, -320, -115920, -230020, -136010
56587, -103, -526, -325, -117460, -205310, -119210
56607, -110, -530, -333, -91980, -190190, -91210
56627, -102, -520, -330, -39130, -172760, -69440
56647, -94, -511, -322, 19530, -146580, -57400
56667, -96, -518, -326, 78260, -117250, -39690
56687, -98, -550, -343, 127470, -87850, -21070
56707, -101, -603, -372, 170170, -54600, -5810
56727, -118, -730, -438, 200830, -18550, 7840
56747, -142, -919, -523, 207900, 30660, 11550
56767, -170, -1254, -687, 187530, 86380, -280
56787, -184, -1747, -969, 160720, 96600, -3780
56807, -196, -1996, -1140, 177870, 18550, 20510
56827, -188, -1693, -929, 238770, -102550, 45010
56847, -179, -1331, -741, 277270, -206570, 54530
56867, -171, -1142, -664, 265300, -251860, 38990
56887, -165, -1074, -641, 242480, -226730, -6370
56907, -167, -1106, -656, 236810, -177870, -57960
56927, -181, -1245, -712, 246750, -142730, -96110
56947, -191, -1493, -822, 251650, -131320, -120820
56967, -202, -1649, -903, 236180, -155750, -131950
56987, -200, -1525, -874, 197540, -206710, -136780
57007, -183, -1233, -733, 170520, -252490, -151410
57027, -167, -977, -582, 193130, -291550, -159460
57047, -144, -796, -473, 215530, -311010, -162470
57067, -122, -688, -407, 190610, -287980, -171010
57087, -98, -613, -360, 137060, -233520, -176330
57107, -83, -565, -329, 84420, -174300, -165200
57127, -72, -536, -318, 43890, -125090, -133840
57147, -64, -523, -318, 18970, -82600, -89250
57167, -63, -507, -315, 13090, -40040, -38990
57187, -61, -493, -303, 21560, 7700, 10360
57207, -62, -480, -294, 28350, 61880, 57470
57227, -71, -479, -292, 17150, 122570, 104300
57247, -92, -508, -317, -20300, 189280, 150010
57267, -119, -572, -370, -76790, 259420, 189070
57287, -151, -674, -438, -130200, 328580, 214690
57307, -185, -835, -535, -163800, 392210, 224000
57327, -221, -1098, -683, -177030, 448630, 216160
57347, -253, -1489, -890, -179200, 497070, 189630
57367, -267, -1832, -1031, -177870, 531930, 144340
57387, -233, -1711, -908, -175070, 524580, 95760
57407, -212, -1434, -777, -178780, 436800, 78610
57427, -210, -1275, -730, -182000, 310590, 89950
57447, -217, -1205, -701, -169540, 256970, 66150
57467, -223, -1199, -659, -144830, 302750, -14490
57487, -223, -1289, -656, -119910, 372330, -107730
57507, -212, -1467, -724, -110600, 383180, -162120
57527, -211, -1636, -857, -122080, 306600, -163800
57547, -216, -1598, -888, -138320, 176890, -140000
57567, -202, -1337, -716, -119350, 74550, -140980
57587, -177, -1064, -537, -82950, 35700, -180320
57607, -154, -859, -430, -78610, 0, -205870
57627, -142, -747, -395, -107660, -55370, -197470
57647, -136, -679, -380, -137620, -109760, -171220
57667, -128, -646, -388, -148960, -144620, -145390
57687, -121, -603, -352, -141330, -153930, -129430
57707, -115, -580, -344, -121310, -138180, -123830
57727, -114, -560, -327, -102410, -112350, -119910
57747, -108, -532, -308, -57680, -107520, -100030
57767, -99, -514, -295, -8540, -114590, -74760
57787, -96, -506, -291, 30590, -120050, -46410
57807, -100, -531, -317, 58870, -121100, -13510
57827, -104, -574, -351, 80640, -112910, 13790
57847, -109, -643, -396, 113960, -90300, 28350
57867, -124, -750, -452, 154910, -56560, 33040
57887, -143, -921, -507, 194390, -10640, 28700
57907, -158, -1221, -629, 213990, 38500, 18130
57927, -186, -1677, -892, 190820, 55580, 17990
57947, -198, -1949, -1123, 148120, 1820, 45150
57967, -194, -1729, -990, 148260, -103740, 74410
57987, -183, -1400, -774, 216510, -186200, 69020
58007, -170, -1178, -649, 269990, -234080, 43680
58027, -166, -1080, -616, 262290, -266420, 20020
58047, -170, -1117, -674, 229880, -278740, 70
58067, -184, -1252, -754, 217140, -272510, -23520
58087, -194, -1434, -807, 231980, -234150, -66010
58107, -195, -1567, -837, 241920, -173810, -127190
58127, -195, -1507, -841, 214760, -152530, -169750
58147, -193, -1287, -765, 174650, -220360, -161700
58167, -178, -1039, -633, 174580, -325360, -131320
58187, -150, -836, -503, 203420, -369740, -131320
58207, -120, -694, -405, 202020, -334600, -165830
58227, -96, -609, -349, 157010, -264810, -197960
58247, -79, -558, -328, 97020, -204470, -197470
58267, -68, -531, -323, 28560, -144130, -106540
58287, -60, -510, -320, 28070, -110110, -52220
58307, -54, -490, -305, 33810, -53830, -6090
58327, -53, -475, -296, 28210, 21700, 34020
58347, -61, -477, -298, 6020, 105630, 73920
58367, -76, -493, -305, -26110, 186410, 115780
58387, -97, -529, -327, -63420, 254870, 159880
58407, -124, -602, -380, -106050, 308420, 204050
58427, -158, -732, -473, -146720, 354830, 238000
58447, -198, -931, -604, -169820, 407330, 246050
58467, -236, -1215, -762, -172060, 473410, 217560
58487, -265, -1590, -928, -167300, 543130, 159180
58507, -250, -1727, -927, -165200, 568610, 103110
58527, -222, -1574, -842, -175770, 490700, 90930
58547, -216, -1380, -784, -190050, 357420, 109410
58567, -217, -1263, -749, -175630, 290360, 90720
58587, -226, -1208, -697, -132230, 322140, 14980
58607, -230, -1217, -640, -92050, 392350, -81900
58627, -216, -1317, -648, -85330, 414680, -144690
58647, -209, -1479, -745, -107870, 348390, -152880
58667, -212, -1586, -865, -130690, 228550, -133140
58687, -215, -1485, -823, -109760, 127050, -133140
58707, -195, -1211, -618, -58310, 82810, -171430
58727, -171, -1000, -482, -43050, 51310, -207970
58747, -155, -861, -430, -78400, -7210, -208600
58767, -147, -771, -414, -121100, -78680, -182210
58787, -142, -708, -405, -137690, -131740, -155400
58807, -132, -653, -382, -126560, -153370, -141120
58827, -123, -598, -349, -99400, -150430, -137760
58847, -111, -547, -307, -69790, -138320, -134470
58867, -105, -512, -279, -50260, -130760, -119980
58887, -102, -508, -290, -44030, -137830, -87570
58907, -108, -536, -321, -29610, -159110, -41860
58927, -106, -557, -352, 7350, -164080, -10570
58947, -106, -581, -364, 59570, -138810, -3780
58967, -106, -600, -362, 118790, -99820, -6020
58987, -107, -661, -381, 169400, -66640, -2730
59007, -120, -794, -433, 192010, -44660, 11760
59027, -149, -1059, -569, 178220, -24780, 27860
59047, -184, -1520, -853, 149590, -21490, 43120
59067, -208, -1962, -1130, 135590, -33740, 40600
59087, -188, -1836, -1004, 172270, -55440, 13790
59107, -190, -1491, -789, 243040, -145180, 11480
59127, -189, -1271, -721, 265790, -288680, 48160
59147, -183, -1178, -712, 240100, -359730, 47880
59167, -179, -1148, -694, 223650, -324100, -7910
59187, -183, -1219, -716, 223790, -237300, -91280
59207, -187, -1375, -778, 234850, -182140, -147140
59227, -198, -1540, -843, 254450, -194880, -160370
59247, -209, -1573, -894, 244860, -252000, -152880
59267, -199, -1378, -825, 194530, -301070, -157780
59287, -180, -1111, -670, 164290, -308070, -190820
59307, -157, -902, -548, 179340, -303660, -217420
59327, -134, -762, -460, 194740, -308070, -219170
59347, -108, -654, -388, 180880, -296380, -210210
59367, -84, -579, -337, 136290, -257110, -197610
59387, -66, -546, -329, 72100, -201670, -172550
59407, -63, -539, -337, 13300, -142170, -132930
59427, -58, -524, -333, -14070, -80570, -87570
59447, -55, -497, -311, -3990, -20020, -41930
59467, -51, -477, -296, 24080, 32830, 10850
59487, -57, -470, -294, 41860, 79520, 74620
59507, -73, -475, -308, 33250, 134330, 140420
59527, -99, -505, -338, -3710, 206080, 196770
59547, -133, -567, -393, -61880, 290290, 238910
59567, -171, -675, -475, -122850, 375690, 266280
59587, -209, -839, -574, -165270, 455840, 276360
59607, -250, -1169, -751, -180460, 527100, 266420
59627, -292, -1659, -1011, -178570, 583030, 239610
59647, -308, -1998, -1178, -178850, 624050, 194740
59667, -254, -1781, -957, -178710, 642390, 129010
59687, -226, -1431, -776, -162470, 579390, 84140
59707, -222, -1251, -740, -153370, 430780, 97020
59727, -240, -1191, -717, -135940, 332010, 91000
59747, -252, -1199, -684, -94290, 358750, 15120
59767, -254, -1299, -673, -48370, 443800, -96670
59787, -229, -1460, -701, -19740, 482160, -174860
59807, -219, -1626, -823, -19180, 415030, -188580
59827, -229, -1634, -916, -50960, 260470, -154490
59847, -219, -1377, -743, -60760, 110810, -133770
59867, -186, -1056, -516, -20650, 56140, -177800
59887, -157, -834, -395, 5180, 35210, -232610
59907, -145, -699, -354, -20580, -28630, -236880
59927, -137, -618, -343, -67130, -111930, -203840
59947, -130, -567, -333, -100170, -173110, -168840
59967, -120, -520, -312, -109760, -198800, -146930
59987, -111, -482, -290, -102060, -193900, -139160
60007, -106, -453, -269, -85050, -174580, -136500
60027, -101, -435, -255, -34300, -154980, -106470
60047, -98, -431, -256, -630, -167510, -73150
60067, -98, -449, -270, 36890, -186130, -33810
60087, -98, -490, -303, 75390, -196070, 2170
60107, -104, -559, -349, 113750, -186340, 25550
60127, -110, -666, -414, 153720, -152600, 31290
60147, -129, -828, -475, 181440, -89180, 14560
60167, -156, -1127, -608, 163730, -11690, -13580
60187, -177, -1633, -888, 127190, 22540, -28280
60207, -198, -1998, -1209, 143500, -60970, 2170
60227, -217, -1996, -1144, 203980, -212030, 42980
60247, -195, -1496, -843, 255920, -314790, 35630
60267, -180, -1135, -644, 262150, -350070, 210
60287, -166, -1017, -621, 231350, -345170, -37730
60307, -174, -1042, -655, 223510, -321580, -72380
60327, -183, -1177, -715, 251720, -274960, -117040
60347, -204, -1496, -849, 265650, -212310, -174090
60367, -216, -1847, -997, 233800, -173600, -221270
60387, -211, -1789, -1025, 176470, -211120, -236180
60407, -206, -1406, -877, 165760, -326200, -211610
60427, -190, -1044, -658, 227850, -409640, -197330
60447, -152, -787, -482, 252910, -399770, -224350
60467, -117, -648, -390, 193410, -332150, -256550
60487, -91, -575, -347, 96250, -252420, -261310
60507, -75, -543, -335, 23870, -187880, -233450
60527, -65, -527, -335, -4480, -141610, -183890
60547, -56, -521, -335, 4270, -105280, -123200
60567, -53, -511, -326, 32830, -63980, -60830
60587, -49, -498, -315, 58520, -7630, -4340
60607, -50, -486, -301, 61600, 64050, 47040
60627, -61, -481, -297, 37240, 142030, 101010
60647, -82, -495, -318, -9590, 215810, 160230
60667, -111, -528, -354, -62860, 281050, 219380
60687, -138, -586, -404, -102900, 337400, 269290
60707, -172, -708, -490, -124040, 387870, 304920
60727, -213, -914, -616, -137130, 442680, 319410
60747, -261, -1252, -815, -154560, 512750, 303310
60767, -302, -1659, -1020, -176540, 598010, 249830
60787, -284, -1834, -1025, -188160, 668150, 171360
60807, -241, -1653, -893, -187810, 643790, 121730
60827, -234, -1464, -853, -190540, 493360, 142590
60847, -243, -1339, -823, -174440, 366030, 152530
60867, -257, -1261, -750, -125580, 383740, 75320
60887, -261, -1259, -682, -68460, 473130, -44940
60907, -242, -1348, -663, -34160, 514920, -130760
60927, -221, -1543, -767, -40810, 457030, -152040
60947, -231, -1696, -943, -77840, 319410, -128450
60967, -235, -1577, -883, -80850, 183540, -117040
60987, -210, -1267, -636, -19180, 130620, -165620
61007, -179, -1008, -468, 22050, 98700, -220710
61027, -160, -841, -405, -8190, 18970, -225400
61047, -149, -736, -390, -67130, -73500, -198940
61067, -143, -670, -385, -106260, -139930, -171850
61087, -134, -612, -363, -112560, -166950, -159530
61107, -121, -550, -319, -95550, -159180, -163730
61127, -114, -498, -277, -71470, -141400, -168980
61147, -108, -464, -257, -52150, -139510, -155820
61167, -106, -461, -261, -38500, -161280, -120050
61187, -103, -467, -278, -25130, -190890, -75180
61207, -102, -482, -296, -4060, -210490, -35770
61227, -103, -510, -322, 27160, -211400, -8190
61247, -105, -567, -359, 64120, -190050, 4060
61267, -112, -653, -399, 105420, -149730, 2870
61287, -123, -798, -464, 149590, -100310, -5740
61307, -143, -1027, -544, 181790, -51380, -14560
61327, -167, -1410, -737, 179690, -20090, -15330
61347, -204, -1954, -1097, 155820, -53620, 9730
61367, -213, -1998, -1198, 149800, -139790, 40250
61387, -191, -1608, -896, 188090, -201110, 23450
61407, -179, -1246, -687, 251230, -252000, -10780
61427, -173, -1094, -650, 273350, -325290, -17430
61447, -176, -1091, -681, 257670, -377160, -18130
61467, -181, -1192, -731, 249900, -364140, -46410
61487, -195, -1396, -803, 246610, -278670, -118860
61507, -194, -1608, -887, 225960, -171220, -202510
61527, -193, -1621, -922, 197470, -138040, -243670
61547, -201, -1402, -842, 193340, -227990, -215810
61567, -182, -1115, -677, 220010, -349020, -170590
61587, -145, -854, -503, 237020, -377440, -179060
61607, -117, -716, -417, 197120, -314160, -226590
61627, -100, -652, -392, 124390, -237510, -253400
61647, -86, -612, -375, 66080, -187810, -237300
61667, -72, -569, -348, 47180, -161140, -192780
61687, -55, -529, -320, 55020, -134190, -141540
61707, -48, -501, -304, 64400, -97230, -87360
61727, -47, -485, -305, 55720, -42700, -31990
61747, -54, -470, -304, 29120, 33180, 19110
61767, -65, -458, -304, -980, 122080, 65800
61787, -83, -462, -312, -23520, 205660, 115710
61807, -109, -484, -337, -47250, 323750, 234150
61827, -139, -544, -383, -67900, 373380, 287350
61847, -181, -680, -486, -109480, 437570, 316680
61867, -238, -918, -650, -157430, 527310, 305130
61887, -294, -1279, -857, -182000, 637420, 245910
61907, -317, -1734, -1034, -170170, 730940, 160580
61927, -281, -1964, -1058, -147490, 720510, 110810
61947, -246, -1701, -933, -146720, 560000, 132440
61967, -239, -1392, -818, -146020, 402080, 148330
61987, -242, -1227, -755, -110320, 371980, 94360
62007, -254, -1143, -679, -43120, 433440, -9310
62027, -253, -1160, -596, 16940, 495250, -105910
62047, -232, -1311, -631, 20510, 486500, -150990
62067, -228, -1570, -805, -21280, 390460, -144340
62087, -237, -1723, -955, -46410, 257880, -128170
62107, -236, -1549, -841, -4410, 159740, -148960
62127, -210, -1251, -617, 57050, 94640, -192850
62147, -181, -998, -467, 50190, 23450, -219380
62167, -163, -833, -415, -16940, -55580, -218190
62187, -153, -728, -397, -76300, -124040, -201460
62207, -147, -654, -372, -96600, -162540, -191030
62227, -136, -592, -339, -90860, -170240, -192500
62247, -126, -536, -300, -76580, -166950, -193900
62267, -116, -503, -280, -64820, -170870, -182420
62287, -112, -484, -271, -60410, -185640, -157010
62307, -110, -485, -279, -58870, -206640, -120890
62327, -113, -500, -298, -49630, -228620, -80220
62347, -112, -529, -329, -25200, -241990, -45780
62367, -110, -567, -355, 12320, -233520, -27440
62387, -112, -634, -389, 56700, -202230, -23940
62407, -119, -723, -433, 103390, -162120, -27090
62427, -124, -826, -456, 139930, -120330, -33180
62447, -140, -1009, -541, 148050, -87500, -32550
62467, -167, -1371, -764, 133630, -85540, -19390
62487, -196, -1755, -1017, 136220, -132230, 5670
62507, -200, -1823, -1047, 172130, -178430, 6020
62527, -182, -1517, -843, 218820, -197960, -30520
62547, -178, -1256, -693, 255850, -254240, -45150
62567, -176, -1155, -692, 253680, -325640, -37520
62587, -182, -1169, -729, 241570, -352170, -46270
62607, -188, -1250, -750, 245980, -299810, -99960
62627, -191, -1413, -806, 240240, -201670, -182210
62647, -190, -1561, -870, 219940, -147630, -234220
62667, -194, -1554, -882, 213430, -192500, -228690
62687, -194, -1384, -816, 210980, -287070, -196350
62707, -175, -1117, -674, 204750, -332430, -194950
62727, -147, -899, -527, 190750, -300370, -232120
62747, -120, -757, -441, 156590, -247240, -261870
62767, -105, -680, -402, 112910, -215390, -251860
62787, -90, -631, -374, 80780, -195370, -215320
62807, -75, -592, -355, 58380, -164640, -175070
62827, -60, -555, -332, 42700, -121800, -132790
62847, -55, -529, -321, 33390, -72940, -83300
62867, -52, -507, -314, 22680, -15540, -30730
62887, -56, -486, -305, 8120, 55300, 17430
62907, -62, -468, -294, -5180, 129780, 65660
62927, -78, -480, -308, -14280, 190050, 124320
62947, -102, -529, -355, -25060, 233100, 194460
62967, -135, -609, -413, -44940, 279930, 255780
62987, -172, -730, -488, -70420, 347200, 291480
63007, -214, -930, -617, -105910, 430920, 298270
63027, -257, -1210, -779, -151760, 519470, 277760
63047, -269, -1486, -882, -185570, 601020, 231980
63067, -251, -1638, -923, -185500, 635740, 185640
63087, -247, -1563, -897, -173950, 574910, 176820
63107, -234, -1363, -797, -169260, 471450, 181720
63127, -231, -1225, -717, -151760, 419090, 149590
63147, -238, -1172, -673, -125090, 429380, 83860
63167, -238, -1209, -653, -90650, 465220, 6650
63187, -236, -1332, -694, -59150, 480900, -56490
63207, -232, -1491, -786, -51590, 451360, -91350
63227, -229, -1570, -842, -56910, 380660, -106260
63247, -220, -1474, -780, -39480, 287000, -117600
63267, -204, -1277, -653, -7560, 200620, -137690
63287, -185, -1095, -542, 10710, 125440, -161490
63307, -169, -952, -480, 1750, 52500, -175910
63327, -160, -849, -447, -30310, -11130, -181370
63347, -151, -759, -402, -55160, -61670, -180250
63367, -137, -666, -358, -56140, -98560, -177870
63387, -130, -608, -324, -46970, -124530, -173530
63407, -124, -570, -309, -42490, -146930, -161210
63427, -120, -548, -308, -43680, -171220, -138810
63447, -116, -535, -309, -43820, -193620, -112280
63467, -113, -530, -316, -37660, -207970, -86870
63487, -110, -536, -323, -21700, -212100, -64820
63507, -108, -553, -335, 7630, -208600, -46900
63527, -109, -601, -360, 47880, -200060, -31850
63547, -114, -687, -402, 91210, -186970, -17500
63567, -125, -826, -470, 149800, -141260, 1750
63587, -150, -1082, -593, 153230, -112140, 980
63607, -172, -1427, -777, 139580, -94500, -6790
63627, -190, -1768, -992, 131810, -112910, -12600
63647, -189, -1770, -999, 166810, -181160, -8890
63667, -185, -1494, -833, 227290, -273980, 560
63687, -178, -1255, -717, 252420, -346010, 1610
63707, -172, -1115, -657, 239330, -358120, -22050
63727, -163, -1061, -636, 218540, -316400, -68810
63747, -169, -1109, -665, 207690, -256410, -118510
63767, -176, -1245, -722, 214550, -207410, -156590
63787, -180, -1424, -788, 221060, -186830, -179410
63807, -184, -1504, -833, 201390, -207340, -179970
63827, -179, -1344, -784, 165270, -253330, -168560
63847, -159, -1096, -654, 156940, -280350, -167650
63867, -136, -884, -525, 176750, -276430, -172410
63887, -109, -735, -430, 178710, -250180, -172900
63907, -87, -639, -370, 146860, -202650, -163660
63927, -70, -573, -331, 98210, -142520, -141330
63947, -57, -530, -312, 53550, -81900, -102550
63967, -50, -501, -306, 25130, -24710, -50260
63987, -52, -482, -306, 12670, 36680, 5530
64007, -58, -476, -307, 9170, 105840, 58310
64027, -71, -474, -312, 8820, 179200, 108360
64047, -90, -495, -328, 3010, 250460, 159180
64067, -122, -558, -375, -21910, 321020, 206430
64087, -160, -660, -450, -66990, 399140, 237510
64107, -200, -804, -541, -116130, 483280, 244160
64127, -234, -999, -652, -151060, 558740, 229810
64147, -258, -1221, -772, -159390, 610540, 203140
64167, -267, -1405, -843, -136780, 628950, 174230
64187, -267, -1477, -859, -103600, 608370, 151340
64207, -260, -1413, -813, -86450, 565880, 127400
64227, -248, -1299, -750, -77910, 526750, 91840
64247, -241, -1212, -701, -56070, 495320, 48020
64267, -243, -1190, -672, -12530, 471380, 3220
64287, -241, -1225, -665, 34930, 452830, -42700
64307, -243, -1317, -694, 61320, 424970, -82460
64327, -236, -1404, -726, 62930, 376180, -112350
64347, -227, -1426, -733, 57540, 302960, -133980
64367, -217, -1368, -714, 57260, 201880, -143010
64387, -210, -1240, -644, 61950, 99610, -152670
64407, -197, -1088, -549, 63140, 25550, -177100
64427, -181, -941, -468, 42910, -28910, -205030
64447, -165, -808, -408, 4830, -83300, -218400
64467, -155, -690, -362, -31430, -140770, -214060
64487, -148, -621, -344, -56980, -197050, -196700
64507, -142, -573, -329, -72100, -241150, -176050
64527, -133, -529, -312, -78400, -264250, -160300
64547, -123, -500, -296, -78400, -270620, -148680
64567, -122, -493, -299, -73640, -272720, -133700
64587, -120, -517, -318, -61880, -276990, -112210
64607, -120, -559, -346, -38010, -280420, -88690
64627, -122, -614, -376, 560, -278320, -67760
64647, -123, -692, -418, 48860, -270200, -50470
64667, -130, -802, -466, 93310, -252700, -39060
64687, -145, -999, -554, 119000, -220010, -38850
64707, -166, -1299, -718, 122710, -185010, -45570
64727, -189, -1664, -953, 115500, -175280, -47600
64747, -195, -1778, -1033, 122220, -195510, -49700
64767, -189, -1554, -879, 169750, -233030, -61600
64787, -186, -1318, -749, 234150, -295330, -66010
64807, -174, -1155, -682, 248780, -352450, -67480
64827, -164, -1052, -635, 223860, -357350, -90020
64847, -155, -1019, -619, 197680, -308140, -132300
64867, -154, -1055, -627, 181160, -238280, -177100
64887, -152, -1118, -627, 179830, -174230, -209300
64907, -151, -1210, -650, 181160, -135030, -222950
64927, -149, -1223, -684, 152950, -130480, -211400
64947, -140, -1103, -643, 102830, -145460, -188160
64967, -125, -928, -545, 80780, -151060, -171570
64987, -104, -766, -440, 95340, -134330, -163170
65007, -83, -649, -367, 107450, -103670, -151760
65027, -69, -570, -325, 93170, -65660, -128030
65047, -63, -529, -314, 55510, -17990, -93660
65067, -65, -513, -322, 10850, 42420, -54040
65087, -74, -503, -330, -18690, 111020, -14000
65107, -83, -489, -326, -20440, 180040, 23940
65127, -95, -493, -325, -1820, 243460, 61600
65147, -118, -526, -347, 12180, 300370, 100800
65167, -149, -596, -392, 3640, 355810, 137760
65187, -184, -709, -460, -24080, 414750, 162330
65207, -215, -865, -542, -58240, 476070, 166250
65227, -232, -1046, -630, -84280, 532560, 148820
65247, -235, -1239, -699, -90440, 568610, 121240
65267, -243, -1401, -787, -73710, 551670, 108500
65287, -239, -1397, -763, -55230, 481880, 111650
65307, -220, -1272, -660, -44310, 416290, 94500
65327, -210, -1177, -623, -48160, 370440, 56210
65347, -206, -1117, -586, -84980, 277480, -13720
65367, -197, -1100, -562, -81480, 251580, -58170
65387, -199, -1138, -575, -84630, 221760, -95550
65407, -199, -1214, -600, -97510, 183260, -124950
65427, -198, -1311, -649, -123200, 133280, -148680
65447, -201, -1391, -729, -162190, 64120, -159950
65467, -196, -1333, -705, -178850, -11130, -168420
65487, -186, -1172, -606, -171430, -83510, -173880
65507, -174, -1030, -551, -183260, -160370, -163590
65527, -169, -924, -517, -207620, -221690, -147070
65547, -158, -841, -484, -224700, -254240, -136080
65567, -153, -806, -483, -231280, -273630, -120400
65587, -152, -807, -492, -219100, -286930, -100870
65607, -149, -810, -492, -185360, -289730, -86170
65627, -143, -808, -475, -139720, -287770, -73010
65647, -140, -804, -468, -97510, -290290, -53340
65667, -137, -810, -478, -67480, -293230, -30520
65687, -133, -822, -484, -42560, -284760, -12880
65707, -124, -836, -499, -12530, -261660, -3430
65727, -120, -846, -510, 27090, -229180, 1750
65747, -114, -826, -496, 70910, -179060, -2310
65767, -109, -786, -462, 104720, -107450, -18970
65787, -107, -759, -438, 121240, -36260, -30870
65807, -111, -789, -461, 131460, 8540, -20930
65827, -122, -860, -515, 145320, 38430, -770
65847, -137, -957, -573, 167300, 77630, 8750
65867, -152, -1063, -625, 190890, 127820, 2940
65887, -167, -1166, -665, 205940, 173040, -6930
65907, -170, -1249, -695, 207270, 199500, -15120
65927, -171, -1310, -728, 199850, 191520, -12670
65947, -173, -1326, -760, 198100, 148750, 3780
65967, -173, -1252, -728, 209020, 113400, 7140
65987, -169, -1146, -652, 233240, 106260, -11480
66007, -168, -1097, -617, 249690, 104160, -31080
66027, -176, -1148, -637, 242970, 97930, -45150
66047, -187, -1254, -684, 222530, 93590, -62580
66067, -196, -1328, -729, 191240, 90580, -89110
66087, -190, -1270, -697, 162610, 77630, -118230
66107, -182, -1148, -625, 169750, 28700, -131040
66127, -178, -1040, -565, 193480, -45640, -127190
66147, -175, -945, -507, 187250, -92610, -135940
66167, -163, -850, -447, 143010, -93310, -167510
66187, -151, -773, -404, 80290, -74060, -202790
66207, -146, -720, -388, 23450, -67900, -219730
66227, -148, -693, -380, 0, -91070, -212520
66247, -142, -666, -356, 4900, -126980, -195720
66267, -131, -640, -336, 1610, -147350, -186760
66287, -125, -620, -325, -37030, -142660, -186060
66307, -120, -596, -314, -94640, -130830, -181650
66327, -116, -576, -309, -138950, -134890, -162050
66347, -120, -584, -329, -158200, -163030, -123200
66367, -123, -616, -359, -152740, -206150, -70630
66387, -122, -658, -384, -128170, -238700, -24500
66407, -118, -696, -389, -102970, -236880, -1120
66427, -123, -773, -426, -101150, -203910, 5250
66447, -142, -930, -520, -121240, -173670, 17010
66467, -158, -1125, -639, -129920, -170870, 41930
66487, -174, -1344, -769, -102480, -195370, 72240
66507, -180, -1512, -851, -49000, -229740, 95410
66527, -181, -1542, -831, 9590, -256270, 100590
66547, -183, -1480, -809, 41790, -277270, 94010
66567, -182, -1424, -831, 34930, -321300, 103180
66587, -171, -1382, -827, 47810, -375620, 123480
66607, -163, -1381, -809, 108500, -384720, 117460
66627, -162, -1461, -830, 164640, -345520, 82740
66647, -166, -1566, -871, 180530, -294490, 43540
66667, -163, -1610, -934, 163380, -264530, 17360
66687, -159, -1480, -886, 151340, -279860, 17570
66707, -199, -1230, -721, 192430, -302960, 22260
66727, -182, -834, -829, 244790, -286650, 3010
66747, 309, -247, -1763, 193620, -337330, -51520
66767, -159, -977, -989, -130550, -371280, -154630
66787, -179, -713, -703, -422800, -10990, -104930
66807, -162, -627, -583, -3780, 34440, 25970
66827, -47, -392, -391, 461160, -162190, 53130
66847, -13, -350, -222, 774480, -241010, 31080
66867, -3, -290, -96, 685860, -132650, 6090
66887, -58, -382, -278, 328090, 149800, -31850
66907, -165, -529, -409, -137620, 464660, -52920
66927, -204, -552, -410, -478660, 736820, -69650
66947, -138, -488, -355, -540470, 833140, -75600
66967, -87, -556, -394, -308560, 669130, 13370
66987, -137, -876, -634, 48930, 360080, 208320
67007, -381, -1632, -1255, 290500, 177170, 372470
67027, -733, -1998, -1517, 310730, 330890, 330820
67047, -407, -1462, -436, 241780, 839720, -3640
67067, -55, -1107, -244, 254800, 1251740, -329000
67087, -247, -1433, -981, 108780, 817390, -112560
67107, -239, -1387, -1149, 83300, -159670, 414260
67127, -312, -1005, -885, 378070, 225820, 99750
67147, -299, -787, -518, 560420, 556500, -141610
67167, -180, -819, -210, 544950, 570080, -161700
67187, -141, -1034, -211, 285040, 359100, -35420
67207, -225, -1571, -950, -63980, 8820, 153160
67227, -234, -1865, -1493, -98000, -209860, 213080
67247, -242, -1267, -839, 281330, -10360, -8820
67267, -163, -849, -244, 532000, 137340, -178850
67287, -143, -734, -182, 373590, -30450, -131950
67307, -173, -678, -290, 69440, -243810, -36470
67327, -188, -689, -455, -111090, -386050, 26180
67347, -178, -717, -541, -134050, -416920, 15680
67367, -179, -656, -496, -51170, -310240, -90860
67387, -166, -495, -303, 58660, -125160, -259630
67407, -126, -357, -118, 119350, -20650, -362320
67427, -102, -309, -55, 83440, -81900, -325710
67447, -127, -370, -158, -33600, -249130, -195020
67467, -159, -467, -298, -155330, -411530, -56700
67487, -172, -602, -424, -215320, -497420, 30800
67507, -157, -753, -532, -207970, -491750, 51030
67527, -134, -886, -594, -176680, -374290, -13230
67547, -122, -991, -575, -154560, -175560, -132720
67567, -95, -1131, -550, -109760, -62160, -195580
67587, -172, -1455, -740, -21630, -217560, -84560
67607, -254, -1748, -1025, 31570, -517300, 109130
67627, -202, -1594, -975, 29820, -634200, 146440
67647, -152, -1307, -777, 9730, -516670, 19530
67667, -135, -1195, -740, -5320, -398930, -78400
67687, -141, -1240, -790, 64120, -426860, -64400
67707, -158, -1341, -805, 216860, -518490, -1960
67727, -165, -1467, -832, 298410, -534660, -770
67747, -157, -1562, -891, 221480, -450310, -74270
67767, -127, -1564, -963, 97230, -342230, -161560
67787, -121, -1423, -921, 101640, -320110, -182420
67807, -124, -1189, -722, 248570, -366590, -143640
67827, -106, -961, -520, 352380, -379470, -128380
67847, -189, -725, -383, 293090, -334040, -139930
67867, -153, -662, -521, 128870, -275870, -144900
67887, -89, -808, -588, -63070, -280700, -128800
67907, -83, -749, -533, -75600, -216580, -129010
67927, -58, -623, -414, 63490, -90020, -151830
67947, -31, -511, -282, 191590, -9240, -136570
67967, -22, -444, -198, 216440, 33250, -70420
67987, -24, -425, -209, 117600, 67410, 22890
68007, -61, -478, -308, -51450, 118370, 113470
68027, -98, -565, -422, -201950, 190260, 187740
68047, -133, -654, -514, -263690, 276150, 224210
68067, -150, -698, -538, -218330, 373940, 217980
68087, -158, -727, -511, -93730, 465360, 194670
68107, -192, -891, -562, 15680, 532490, 192080
68127, -259, -1244, -759, 9940, 594790, 200060
68147, -299, -1625, -997, -111790, 697900, 155050
68167, -229, -1716, -1022, -228130, 812000, 48160
68187, -157, -1527, -872, -187810, 786940, -2660
68207, -192, -1409, -846, -18900, 546350, 101500
68227, -240, -1278, -823, 89740, 357070, 184100
68247, -269, -1151, -728, 109830, 412650, 100730
68267, -238, -1050, -582, 116130, 572180, -51310
68287, -179, -1070, -503, 155260, 620830, -128310
68307, -159, -1241, -597, 179830, 492660, -79870
68327, -187, -1464, -847, 148680, 280070, 20370
68347, -206, -1424, -871, 106540, 139020, 58240
68367, -180, -1134, -597, 129850, 166460, -30240
68387, -138, -887, -371, 197610, 217490, -132160
68407, -125, -775, -342, 205450, 127050, -124670
68427, -132, -711, -361, 139510, -34930, -52570
68447, -126, -644, -357, 73430, -143220, -3570
68467, -119, -605, -355, 31570, -161420, -10850
68487, -115, -551, -315, 3500, -114240, -55230
68507, -106, -492, -252, -3920, -45920, -108990
68527, -96, -453, -201, 3920, -6370, -140630
68547, -94, -468, -209, 8750, -30450, -124110
68567, -106, -531, -260, -8050, -102620, -65660
68587, -110, -613, -330, -42560, -176400, 1890
68607, -115, -711, -403, -80920, -211680, 44310
68627, -119, -828, -479, -115640, -197540, 52080
68647, -121, -975, -554, -139370, -147350, 32970
68667, -117, -1153, -606, -138250, -89040, 3150
68687, -138, -1345, -674, -97930, -79240, -2520
68707, -172, -1486, -799, -55860, -158340, 44940
68727, -164, -1429, -809, -57470, -282450, 110810
68747, -145, -1276, -732, -80010, -348250, 126490
68767, -136, -1175, -676, -82740, -340480, 97090
68787, -131, -1139, -647, -57260, -327180, 77280
68807, -132, -1183, -658, -8470, -337050, 82810
68827, -135, -1297, -730, 35770, -358050, 101710
68847, -130, -1412, -809, 41790, -359030, 109550
68867, -120, -1440, -828, 18270, -259560, 52080
68887, -112, -1347, -763, 55230, -244720, 45360
68907, -113, -1213, -673, 115780, -275240, 72310
68927, -106, -1075, -590, 143150, -294630, 95550
68947, -95, -950, -532, 120330, -267820, 98350
68967, -84, -850, -495, 77000, -199430, 84770
68987, -77, -770, -459, 50960, -115150, 71190
69007, -69, -705, -422, 57890, -41020, 71890
69027, -67, -655, -392, 80500, 17290, 89950
69047, -69, -616, -372, 92960, 72940, 116410
69067, -77, -589, -369, 78890, 143150, 139230
69087, -92, -578, -384, 45710, 231840, 152390
69107, -121, -587, -418, 15330, 333480, 153580
69127, -146, -600, -445, 10290, 433160, 146790
69147, -168, -623, -469, 37590, 514080, 141750
69167, -187, -668, -504, 83230, 569450, 145670
69187, -210, -747, -554, 128520, 606760, 155890
69207, -228, -863, -620, 165340, 634060, 164360
69227, -239, -1029, -699, 196210, 646730, 169750
69247, -240, -1249, -791, 220290, 636230, 175000
69267, -216, -1443, -846, 235130, 590240, 185640
69287, -192, -1478, -834, 239330, 488390, 213920
69307, -183, -1341, -759, 236880, 352520, 249550
69327, -171, -1149, -655, 241080, 244510, 261240
69347, -165, -1049, -593, 253400, 180810, 247450
69367, -163, -1020, -555, 262570, 145390, 219940
69387, -166, -1060, -540, 256550, 118510, 188230
69407, -170, -1156, -581, 222810, 79800, 160370
69427, -178, -1275, -658, 173040, 20300, 137410
69447, -183, -1335, -708, 140840, -48930, 109970
69467, -186, -1286, -682, 139160, -115360, 72310
69487, -182, -1128, -581, 150780, -179270, 29260
69507, -179, -947, -483, 147350, -241080, -13650
69527, -180, -807, -424, 119980, -302260, -47460
69547, -177, -694, -393, 82110, -355040, -74550
69567, -175, -622, -369, 50330, -385140, -105490
69587, -165, -558, -339, 25620, -389760, -144130
69607, -155, -509, -308, 420, -378840, -184450
69627, -147, -478, -292, -31990, -364700, -215250
69647, -141, -477, -300, -69160, -356510, -230650
69667, -143, -503, -317, -100450, -363580, -224840
69687, -138, -547, -348, -112420, -382900, -202580
69707, -140, -613, -384, -109340, -404320, -173810
69727, -140, -710, -439, -106820, -414120, -147000
69747, -145, -840, -512, -109480, -411320, -124810
69767, -152, -1018, -609, -113330, -399280, -109620
69787, -158, -1212, -730, -106400, -391720, -97230
69807, -163, -1373, -823, -74480, -404670, -80640
69827, -167, -1392, -820, -14910, -433370, -65030
69847, -167, -1292, -759, 44660, -469420, -54040
69867, -159, -1189, -721, 72520, -507290, -41440
69887, -150, -1147, -722, 83300, -526960, -34650
69907, -140, -1160, -733, 103600, -511700, -42350
69927, -131, -1202, -739, 137340, -462840, -66500
69947, -125, -1267, -749, 166250, -395920, -99050
69967, -122, -1335, -776, 178920, -342650, -120610
69987, -118, -1359, -797, 177240, -320600, -121800
70007, -112, -1296, -774, 175350, -317170, -110110
70027, -101, -1158, -688, 181090, -300230, -104510
70047, -85, -1003, -582, 188720, -257040, -109620
70067, -73, -875, -498, 187040, -207410, -108080
70087, -63, -782, -445, 170100, -164570, -88340
70107, -58, -722, -417, 143710, -123130, -54880
70127, -57, -685, -407, 117320, -70980, -18270
70147, -58, -662, -402, 94850, -2520, 13930
70167, -63, -638, -391, 76580, 79450, 41300
70187, -72, -608, -379, 63280, 163170, 69370
70207, -86, -589, -372, 51660, 236180, 105350
70227, -105, -597, -395, 34230, 297010, 149030
70247, -131, -632, -438, 5670, 355810, 190120
70267, -159, -678, -492, -25760, 422870, 216720
70287, -189, -738, -544, -43960, 498050, 224700
70307, -219, -803, -591, -39900, 575750, 216790
70327, -241, -888, -632, -16590, 647990, 198520
70347, -259, -1007, -690, 15820, 703360, 178850
70367, -268, -1173, -781, 43400, 734160, 164220
70387, -263, -1326, -857, 63630, 742140, 151130
70407, -242, -1381, -859, 94710, 723520, 139440
70427, -215, -1308, -790, 145250, 664510, 141470
70447, -202, -1225, -744, 196000, 567350, 162470
70467, -194, -1148, -699, 227500, 466900, 183960
70487, -185, -1083, -647, 244440, 404880, 180810
70507, -174, -1055, -591, 259140, 373520, 158270
70527, -168, -1083, -570, 271670, 335300, 141960
70547, -168, -1143, -598, 263550, 268940, 143360
70567, -172, -1184, -633, 229040, 189700, 147700
70587, -169, -1154, -614, 192990, 121240, 135450
70607, -161, -1060, -543, 174720, 70280, 104300
70627, -155, -950, -469, 170100, 22400, 68530
70647, -151, -840, -417, 141470, -106330, 31780
70667, -149, -755, -382, 108780, -156520, 14070
70687, -147, -685, -356, 74830, -183610, -12250
70707, -139, -626, -331, 44380, -192640, -44870
70727, -136, -575, -302, 16380, -191800, -77560
70747, -132, -535, -275, -11620, -191310, -103670
70767, -127, -519, -270, -41370, -200620, -116620
70787, -125, -529, -287, -69160, -218820, -116340
70807, -125, -561, -310, -91070, -235830, -110460
70827, -124, -613, -341, -110250, -241150, -107730
70847, -125, -698, -390, -132860, -234080, -107520
70867, -128, -833, -462, -155120, -222810, -106190
70887, -133, -992, -549, -171920, -220850, -99540
70907, -147, -1195, -676, -178360, -240800, -82880
70927, -158, -1367, -782, -161910, -284620, -57890
70947, -161, -1382, -775, -126630, -332290, -40810
70967, -163, -1263, -712, -104370, -380170, -27090
70987, -163, -1148, -674, -103810, -432250, -4550
71007, -160, -1092, -660, -97020, -467810, 16660
71027, -151, -1104, -675, -71890, -473130, 27090
71047, -141, -1164, -700, -35840, -448140, 21910
71067, -134, -1247, -726, -3920, -400190, 1960
71087, -133, -1344, -776, 15960, -359870, -13930
71107, -133, -1399, -806, 32410, -354690, -9100
71127, -128, -1322, -767, 60480, -367850, 5180
71147, -114, -1172, -682, 92750, -368270, 12390
71167, -103, -1016, -588, 114870, -348670, 12320
71187, -91, -888, -508, 120540, -310450, 11410
71207, -76, -794, -460, 109340, -258720, 13790
71227, -68, -733, -428, 94150, -199220, 23520
71247, -63, -684, -405, 82320, -131040, 37380
71267, -61, -652, -389, 71820, -53060, 51310
71287, -64, -635, -384, 60550, 29820, 67130
71307, -73, -627, -385, 50050, 112210, 85890
71327, -87, -628, -392, 38640, 191870, 106470
71347, -105, -646, -414, 22330, 269220, 125720
71367, -125, -674, -444, 4270, 344260, 140630
71387, -149, -706, -479, -5460, 416080, 148400
71407, -171, -741, -516, -560, 483490, 148190
71427, -190, -788, -551, 22610, 541870, 143290
71447, -207, -854, -587, 60830, 584360, 139230
71467, -222, -949, -641, 102270, 609560, 137900
71487, -235, -1078, -703, 136710, 623280, 135450
71507, -232, -1212, -761, 164080, 623420, 129710
71527, -212, -1316, -784, 190890, 593670, 130060
71547, -191, -1342, -768, 215600, 523250, 145810
71567, -182, -1296, -747, 231000, 420140, 173670
71587, -175, -1208, -704, 240100, 322980, 190820
71607, -168, -1129, -637, 253820, 263410, 180670
71627, -163, -1098, -592, 266700, 224210, 158690
71647, -162, -1106, -574, 262220, 179620, 140910
71667, -161, -1137, -581, 236180, 123690, 127540
71687, -163, -1159, -604, 199150, 59850, 113750
71707, -165, -1145, -605, 169120, -1680, 92260
71727, -163, -1084, -561, 160720, -53900, 60060
71747, -162, -989, -491, 160580, -100240, 23100
71767, -161, -863, -432, 145040, -148120, -9310
71787, -155, -766, -396, 114310, -197540, -33530
71807, -154, -693, -369, 79450, -241360, -52920
71827, -149, -637, -353, 51380, -274680, -70280
71847, -141, -580, -322, 28560, -288470, -93520
71867, -132, -537, -295, 5670, -283360, -121870
71887, -128, -516, -284, -28000, -270620, -146370
71907, -125, -528, -302, -62650, -269920, -152040
71927, -123, -561, -326, -89460, -281680, -142170
71947, -122, -613, -359, -104440, -291900, -127330
71967, -123, -690, -406, -113610, -295190, -110530
71987, -125, -795, -458, -118090, -293160, -93030
72007, -129, -917, -515, -119840, -286440, -78330
72027, -136, -1085, -611, -124110, -276780, -66710
72047, -148, -1268, -725, -124880, -282730, -48650
72067, -153, -1381, -789, -111650, -309050, -25480
72087, -154, -1367, -782, -85120, -339780, -9240
72107, -152, -1266, -716, -51870, -372540, 2310
72127, -145, -1177, -678, -21910, -406910, 16170
72147, -141, -1157, -688, -5950, -433090, 31290
72167, -131, -1181, -704, 9800, -440720, 43260
72187, -122, -1231, -719, 37380, -416640, 38640
72207, -116, -1298, -747, 59780, -364840, 18410
72227, -115, -1322, -751, 73990, -317100, 1960
72247, -111, -1294, -735, 91560, -294980, 1820
72267, -106, -1205, -692, 109830, -295120, 15750
72287, -95, -1074, -616, 122710, -292390, 31010
72307, -82, -938, -533, 130130, -264740, 34930
72327, -73, -837, -474, 130130, -214970, 33110
72347, -68, -768, -439, 120260, -160580, 39410
72367, -67, -716, -413, 107660, -106610, 56210
72387, -67, -678, -399, 95620, -46410, 76230
72407, -70, -648, -393, 62440, 99120, 114870
72427, -82, -624, -394, 46830, 179620, 133210
72447, -95, -610, -396, 35840, 260890, 150080
72467, -115, -615, -412, 24010, 341460, 163940
72487, -137, -637, -442, 9380, 421750, 171850
72507, -163, -680, -485, 2590, 497280, 173740
72527, -192, -754, -544, 15820, 561890, 170870
72547, -221, -857, -617, 50330, 616280, 161070
72567, -240, -971, -674, 95900, 662970, 143990
72587, -235, -1048, -681, 138740, 685300, 133350
72607, -216, -1113, -686, 170800, 646590, 152600
72627, -213, -1188, -740, 186760, 560560, 192780
72647, -204, -1199, -752, 202160, 494970, 208950
72667, -188, -1143, -704, 239190, 450380, 202930
72687, -181, -1095, -643, 283150, 391930, 206780
72707, -172, -1069, -585, 296590, 331030, 212800
72727, -171, -1125, -603, 268800, 266910, 216930
72747, -178, -1217, -669, 222110, 200060, 215320
72767, -173, -1265, -683, 196140, 151480, 190120
72787, -170, -1266, -655, 196560, 101290, 158550
72807, -170, -1224, -621, 192640, 22750, 141610
72827, -168, -1129, -565, 172200, -58520, 122990
72847, -163, -1014, -515, 140350, -121870, 93310
72867, -162, -893, -469, 108640, -169540, 59570
72887, -156, -787, -412, 91700, -199990, 21630
72907, -151, -699, -362, 84840, -220430, -16030
72927, -147, -637, -332, 69580, -240940, -45710
72947, -146, -598, -320, 45150, -262430, -66500
72967, -139, -563, -307, 15260, -275590, -87220
72987, -138, -546, -301, -15050, -278320, -108640
73007, -134, -541, -302, -46270, -277690, -124670
73027, -127, -560, -320, -77000, -275870, -134190
73047, -126, -587, -339, -102060, -271530, -138320
73067, -124, -635, -364, -115920, -265790, -137130
73087, -126, -715, -398, -120400, -265510, -127820
73107, -130, -821, -453, -126210, -272440, -109900
73127, -137, -961, -540, -142800, -281330, -88900
73147, -147, -1136, -650, -162820, -290850, -69720
73167, -153, -1312, -759, -165830, -304360, -55020
73187, -156, -1405, -804, -144480, -321790, -47530
73207, -158, -1366, -772, -111230, -350280, -39480
73227, -162, -1262, -719, -80360, -401870, -16730
73247, -160, -1179, -696, -63980, -457520, 14420
73267, -151, -1149, -700, -54250, -484540, 35070
73287, -137, -1161, -704, -35770, -467600, 34020
73307, -126, -1213, -716, -8120, -417760, 15540
73327, -123, -1276, -734, 21210, -367430, 70
73347, -121, -1311, -747, 52640, -344680, 2170
73367, -116, -1280, -730, 79030, -342860, 15610
73387, -109, -1197, -689, 94780, -340410, 28210
73407, -97, -1080, -623, 99680, -317100, 31360
73427, -85, -957, -549, 101500, -272580, 27580
73447, -76, -848, -485, 107660, -224140, 30870
73467, -69, -766, -437, 113820, -177520, 45220
73487, -64, -703, -404, 110180, -124250, 64680
73507, -65, -671, -398, 94150, -58240, 83580
73527, -70, -653, -401, 71960, 21350, 99610
73547, -80, -639, -402, 52220, 111370, 111370
73567, -94, -628, -402, 40040, 202160, 122500
73587, -108, -628, -411, 34650, 283640, 137760
73607, -129, -639, -432, 27440, 354340, 156660
73627, -151, -661, -467, 17290, 421050, 171640
73647, -180, -690, -510, 12950, 488740, 176890
73667, -202, -727, -548, 26950, 556290, 172060
73687, -220, -786, -590, 66500, 613690, 163170
73707, -235, -882, -639, 123130, 652820, 159180
73727, -242, -1017, -693, 175980, 672280, 162680
73747, -234, -1188, -758, 209510, 670530, 172690
73767, -221, -1322, -808, 225540, 637910, 189350
73787, -201, -1388, -817, 232050, 573930, 210770
73807, -187, -1354, -787, 240030, 482510, 236180
73827, -178, -1242, -713, 252700, 374430, 262010
73847, -172, -1134, -630, 265720, 286090, 269500
73867, -168, -1091, -586, 265860, 229880, 256200
73887, -166, -1112, -584, 246960, 182000, 238840
73907, -167, -1164, -600, 216650, 134190, 219380
73927, -172, -1213, -624, 183470, 86100, 195020
73947, -173, -1207, -626, 152950, 31780, 167230
73967, -171, -1117, -567, 135030, -29120, 137410
73987, -166, -1004, -504, 129780, -90020, 104020
74007, -165, -897, -459, 120890, -149940, 71820
74027, -162, -785, -405, 102410, -203280, 41090
74047, -157, -693, -364, 77000, -238280, 5390
74067, -153, -623, -336, 50260, -261520, -29190
74087, -149, -570, -316, 26950, -281610, -57960
74107, -143, -527, -298, 6370, -294140, -84560
74127, -138, -506, -287, -14700, -293790, -113260
74147, -129, -496, -279, -40180, -285950, -139580
74167, -128, -513, -288, -68180, -277900, -158130
74187, -123, -558, -316, -129080, -273070, -159670
74207, -124, -646, -374, -158760, -274260, -145460
74227, -130, -767, -447, -170660, -277270, -126630
74247, -134, -923, -525, -165970, -275800, -112490
74267, -140, -1121, -626, -163240, -273980, -103460
74287, -155, -1342, -757, -167300, -290290, -88200
74307, -160, -1473, -837, -162050, -332080, -66290
74327, -168, -1415, -822, -136150, -395430, -37660
74347, -168, -1261, -736, -97860, -459340, -6930
74367, -162, -1137, -670, -66570, -496650, 12950
74387, -156, -1088, -651, -52500, -503370, 22610
74407, -143, -1137, -696, -43610, -485660, 24290
74427, -134, -1238, -752, -23870, -444570, 15890
74447, -128, -1347, -793, 14840, -394240, 700
74467, -123, -1412, -810, 60900, -358890, -8890
74487, -120, -1380, -779, 94290, -350350, -5040
74507, -116, -1256, -717, 104300, -358820, 10990
74527, -106, -1110, -650, 105840, -360920, 28070
74547, -93, -960, -566, 117390, -329420, 32760
74567, -76, -833, -485, 130620, -265580, 26180
74587, -66, -744, -427, 130410, -191240, 24920
74607, -59, -687, -390, 114940, -118440, 37030
74627, -58, -651, -380, 87990, -45780, 58310
74647, -63, -638, -384, 59710, 28630, 83510
74667, -72, -628, -394, 39830, 106890, 108080
74687, -85, -617, -403, 32620, 189420, 128450
74707, -101, -606, -405, 32480, 274820, 144410
74727, -124, -612, -419, 27650, 360710, 156240
74747, -147, -630, -449, 17220, 445060, 163520
74767, -174, -659, -485, 12880, 522760, 166250
74787, -202, -716, -536, 27510, 587370, 166810
74807, -226, -796, -598, 61950, 639730, 163170
74827, -245, -909, -659, 111160, 680330, 157220
74847, -252, -1083, -741, 163030, 701540, 155890
74867, -243, -1254, -799, 204120, 691320, 163240
74887, -224, -1396, -834, 228340, 641690, 182770
74907, -205, -1429, -843, 230160, 558040, 207340
74927, -185, -1347, -797, 232120, 452130, 232750
74947, -174, -1217, -705, 256130, 349370, 250670
74967, -168, -1111, -622, 278740, 276920, 250180
74987, -163, -1070, -583, 277900, 225260, 239260
75007, -168, -1102, -581, 256340, 178990, 224490
75027, -168, -1178, -610, 223090, 137200, 202860
75047, -170, -1256, -651, 186550, 90370, 176260
75067, -172, -1265, -653, 158760, 30590, 149660
75087, -169, -1173, -599, 147000, -37240, 121100
75107, -167, -1036, -527, 140700, -107450, 91070
75127, -163, -890, -455, 128520, -173390, 61880
75147, -161, -767, -393, 109410, -224420, 30800
75167, -153, -662, -349, 82530, -255220, -4270
75187, -152, -594, -320, 55440, -274820, -36750
75207, -143, -536, -295, 30870, -289030, -64400
75227, -138, -508, -286, 5880, -293230, -92750
75247, -134, -493, -280, -24710, -286160, -120120
75267, -130, -496, -283, -55930, -274330, -143850
75287, -124, -518, -294, -83930, -265860, -157710
75307, -122, -566, -321, -107520, -261380, -161420
75327, -124, -645, -366, -128100, -261940, -154070
75347, -129, -755, -429, -142170, -267750, -137830
75367, -135, -890, -498, -149590, -275310, -118020
75387, -144, -1069, -605, -159180, -280490, -100170
75407, -152, -1268, -726, -171150, -289870, -83440
75427, -157, -1412, -810, -168770, -310170, -67620
75447, -163, -1400, -803, -145460, -342370, -53550
75467, -166, -1283, -740, -113400, -392560, -32550
75487, -166, -1173, -687, -82670, -451570, -3290
75507, -160, -1137, -688, -59710, -493920, 22120
75527, -147, -1173, -718, -44380, -505960, 36120
75547, -136, -1245, -747, -24990, -479850, 31290
75567, -127, -1338, -782, 2310, -424130, 9450
75587, -126, -1405, -804, 35280, -374500, -9590
75607, -124, -1398, -796, 70490, -355530, -10640
75627, -120, -1297, -746, 97650, -360430, 1890
75647, -106, -1150, -668, 113400, -365820, 15960
75667, -93, -1001, -582, 121520, -346360, 20020
75687, -80, -879, -507, 124600, -297920, 14350
75707, -69, -784, -449, 126420, -238630, 13160
75727, -62, -719, -406, 124250, -179200, 23310
75747, -59, -680, -396, 112420, -116620, 41930
75767, -64, -654, -391, 91140, -46760, 63910
75787, -67, -626, -383, 69860, 31360, 85400
75807, -77, -601, -377, 53200, 115360, 104860
75827, -92, -585, -383, 38710, 200410, 124460
75847, -111, -591, -405, 23940, 281750, 145740
75867, -138, -617, -442, 12530, 360010, 165480
75887, -168, -659, -486, 9940, 437780, 178290
75907, -199, -715, -537, 16240, 517790, 179760
75927, -224, -780, -586, 33110, 596470, 170590
75947, -243, -865, -638, 113190, 700280, 154140
75967, -251, -1016, -701, 159810, 708680, 159670
75987, -249, -1200, -783, 189770, 690130, 171220
76007, -231, -1356, -846, 208180, 642600, 186760
76027, -211, -1395, -843, 229320, 559510, 211050
76047, -191, -1309, -772, 250810, 456680, 238350
76067, -180, -1194, -702, 264180, 360150, 258300
76087, -174, -1116, -650, 271460, 289940, 261660
76107, -172, -1079, -604, 271810, 247660, 247310
76127, -168, -1098, -582, 256550, 210560, 228410
76147, -168, -1173, -606, 221830, 158410, 213430
76167, -175, -1258, -658, 180740, 94360, 197120
76187, -174, -1286, -671, 153650, 28280, 172270
76207, -172, -1212, -628, 143500, -36890, 139860
76227, -167, -1074, -545, 138110, -98700, 103390
76247, -163, -925, -464, 128170, -158690, 70560
76267, -162, -809, -411, 110180, -215880, 44310
76287, -162, -726, -383, 84910, -257460, 16730
76307, -155, -654, -354, 58730, -275590, -19530
76327, -149, -587, -317, 34650, -275730, -60970
76347, -141, -529, -281, 4270, -267610, -101010
76367, -140, -500, -273, -32760, -265930, -127190
76387, -136, -496, -286, -66850, -274890, -139090
76407, -133, -514, -301, -85750, -286020, -144130
76427, -126, -538, -308, -94640, -287420, -150430
76447, -122, -578, -327, -109830, -280140, -153650
76467, -123, -652, -368, -139510, -272370, -147840
76487, -128, -778, -445, -173670, -268520, -132300
76507, -138, -962, -557, -195650, -272580, -111300
76527, -152, -1212, -709, -193410, -287630, -87920
76547, -157, -1428, -817, -168980, -303870, -74760
76567, -156, -1474, -819, -136360, -321720, -73920
76587, -171, -1364, -773, -114240, -379260, -52010
76607, -178, -1236, -738, -103390, -469420, -4550
76627, -170, -1164, -713, -84000, -527170, 27790
76647, -152, -1159, -707, -54180, -524790, 30520
76667, -140, -1212, -725, -27650, -480270, 11270
76687, -134, -1330, -789, -8470, -425950, -10640
76707, -133, -1449, -842, 25900, -396480, -15680
76727, -135, -1489, -857, 73430, -395010, -7350
76747, -127, -1388, -802, 104580, -397670, -1330
76767, -114, -1206, -699, 117880, -387660, -2730
76787, -101, -1035, -605, 126630, -367780, -2380
76807, -92, -888, -526, 137410, -338170, 4690
76827, -114, -777, -460, 143010, -293790, 6790
76847, -54, -713, -514, 102830, -273700, -26180
76867, -25, -692, -516, 59570, -262640, -50260
76887, -50, -667, -420, 51660, -166810, -40040
76907, -60, -630, -376, 86940, -70070, -10920
76927, -45, -595, -342, 117530, -7560, 23870
76947, -53, -569, -324, 102410, 53550, 58520
76967, -68, -572, -347, 46480, 139090, 93660
76987, -99, -606, -399, -30940, 234920, 122290
77007, -125, -653, -454, -93030, 338380, 136150
77027, -152, -700, -495, -101290, 433650, 136080
77047, -171, -770, -536, -56210, 505750, 135940
77067, -204, -924, -620, 7420, 555940, 142660
77087, -243, -1122, -740, 47950, 603820, 144830
77107, -275, -1296, -832, 51520, 667800, 120960
77127, -252, -1350, -817, 45080, 734020, 71820
77147, -196, -1340, -767, 67900, 734230, 42560
77167, -190, -1368, -827, 124110, 608160, 88200
77187, -208, -1339, -860, 179200, 441000, 161000
77207, -213, -1234, -775, 230860, 385070, 156380
77227, -195, -1143, -653, 278670, 423780, 88130
77247, -164, -1129, -581, 299530, 429100, 45780
77267, -156, -1212, -621, 282730, 344330, 64330
77287, -172, -1343, -762, 238980, 208950, 111650
77307, -178, -1325, -765, 205170, 107240, 125930
77327, -166, -1172, -610, 219240, 85820, 76930
77347, -146, -1013, -474, 251790, 84560, 11690
77367, -142, -902, -429, 237090, 22750, -7490
77387, -143, -822, -420, 182840, -85260, 13020
77407, -143, -755, -410, 134680, -171290, 27440
77427, -136, -688, -383, 102270, -199150, 9170
77447, -129, -613, -330, 81760, -177940, -35840
77467, -118, -539, -266, 67970, -139790, -86100
77487, -110, -496, -233, 47460, -122150, -115220
77507, -113, -487, -246, 14420, -143290, -108780
77527, -111, -499, -271, -21210, -189630, -78120
77547, -107, -523, -290, -50750, -227500, -49840
77567, -105, -562, -315, -75040, -235690, -36890
77587, -103, -626, -349, -102550, -213570, -38080
77607, -104, -721, -397, -133980, -175770, -44730
77627, -114, -864, -470, -161280, -140140, -47460
77647, -126, -1077, -582, -168840, -126700, -35910
77667, -144, -1362, -736, -152180, -150220, -5880
77687, -154, -1588, -863, -130830, -197050, 28140
77707, -150, -1555, -860, -129220, -265930, 36470
77727, -150, -1328, -747, -134890, -320740, 49350
77747, -154, -1182, -672, -96950, -386260, 82320
77767, -151, -1132, -649, -55720, -427560, 109620
77787, -142, -1171, -672, -41580, -412160, 106820
77807, -130, -1276, -734, -56770, -353640, 78470
77827, -128, -1427, -825, -65450, -297290, 54110
77847, -122, -1531, -878, -28350, -278530, 50750
77867, -123, -1482, -819, 41230, -297360, 68040
77887, -123, -1312, -712, 87360, -328860, 92540
77907, -113, -1124, -622, 77140, -330890, 100940
77927, -98, -967, -555, 51170, -298340, 98070
77947, -86, -842, -495, 47110, -246470, 94500
77967, -72, -758, -451, 62020, -184590, 91560
77987, -66, -687, -402, 81620, -111720, 93730
78007, -63, -637, -369, 88200, -36820, 103740
78027, -64, -603, -356, 73010, 40880, 120820
78047, -74, -589, -364, 41020, 125020, 138180
78067, -91, -584, -385, 7630, 216300, 150290
78087, -110, -580, -404, -7980, 307300, 157220
78107, -129, -576, -421, 1890, 391300, 161980
78127, -149, -572, -434, 34440, 463470, 167860
78147, -171, -587, -461, 78820, 524160, 175770
78167, -205, -640, -517, 121100, 581000, 180670
78187, -235, -710, -572, 156450, 643020, 174790
78207, -245, -812, -613, 194950, 695310, 166390
78227, -237, -968, -661, 236530, 706440, 175350
78247, -223, -1209, -741, 263340, 660800, 211680
78267, -211, -1449, -841, 258860, 571550, 260960
78287, -203, -1540, -904, 233520, 460460, 300510
78307, -188, -1418, -825, 222880, 357770, 314510
78327, -169, -1239, -680, 243950, 276850, 307930
78347, -165, -1137, -596, 253750, 196490, 305060
78367, -165, -1111, -580, 225820, 122010, 302190
78387, -172, -1165, -611, 182910, 70980, 282240
78407, -174, -1268, -669, 144480, 39480, 244160
78427, -176, -1348, -701, 121590, 8820, 198170
78447, -180, -1336, -670, 118090, -38850, 154910
78467, -183, -1240, -624, 111510, -114870, 124460
78487, -185, -1092, -572, 89880, -207760, 102760
78507, -181, -929, -493, 75040, -279650, 71190
78527, -174, -796, -431, 69300, -318290, 26390
78547, -170, -703, -391, 61180, -340970, -18200
78567, -167, -625, -350, 48020, -354130, -59290
78587, -158, -564, -321, 26460, -357140, -98840
78607, -154, -521, -303, -6580, -353150, -134330
78627, -150, -504, -305, -37520, -355460, -155610
78647, -141, -492, -297, -59640, -361060, -168420
78667, -133, -491, -299, -81200, -359310, -178150
78687, -130, -526, -318, -110670, -351890, -179900
78707, -129, -587, -358, -138250, -347340, -168560
78727, -126, -665, -399, -152880, -346710, -148890
78747, -132, -785, -463, -160160, -340970, -128800
78767, -140, -963, -567, -163590, -336140, -105420
78787, -151, -1183, -682, -155260, -339150, -81130
78807, -153, -1392, -794, -137690, -345940, -64820
78827, -163, -1491, -866, -122500, -364140, -52430
78847, -167, -1393, -809, -94220, -412090, -28770
78867, -166, -1255, -735, -47250, -468930, -2730
78887, -158, -1180, -708, -8890, -514150, 20720
78907, -146, -1163, -705, 13860, -529830, 34370
78927, -133, -1221, -734, 31920, -502180, 26600
78947, -125, -1325, -786, 47250, -446250, 5250
78967, -119, -1429, -826, 73010, -391020, -13370
78987, -114, -1471, -843, 102760, -352240, -23590
79007, -110, -1381, -791, 126000, -339430, -19670
79027, -100, -1220, -705, 147420, -342790, -3710
79047, -86, -1039, -603, 156030, -331450, 7490
79067, -94, -890, -503, 156030, -291550, 10500
79087, -53, -804, -509, 152740, -234640, 11760
79107, -61, -737, -439, 118860, -188720, 9520
79127, -54, -672, -399, 90370, -115500, 19950
79147, -54, -625, -370, 101290, -41020, 48020
79167, -58, -597, -357, 110250, 22750, 83650
79187, -68, -582, -360, 94640, 98420, 115710
79207, -89, -577, -384, 57260, 187670, 143290
79227, -111, -573, -406, 12810, 284060, 164500
79247, -134, -564, -423, -20370, 383950, 176470
79267, -160, -562, -439, -24850, 475090, 184520
79287, -189, -601, -486, -3290, 546420, 197680
79307, -228, -682, -565, 24220, 606550, 211330
79327, -268, -793, -650, 50050, 672980, 211610
79347, -294, -923, -729, 85890, 746830, 194530
79367, -292, -1112, -792, 143780, 804860, 173670
79387, -265, -1378, -844, 211330, 819420, 169610
79407, -233, -1608, -950, 247450, 771190, 195160
79427, -209, -1543, -951, 221340, 655410, 243250
79447, -187, -1282, -781, 199080, 515060, 283430
79467, -171, -1078, -639, 244580, 406490, 297430
79487, -168, -980, -557, 307440, 263900, 310450
79507, -171, -999, -541, 274190, 233170, 298480
79527, -178, -1093, -579, 210560, 217840, 270200
79547, -177, -1224, -646, 150920, 187390, 240450
79567, -178, -1320, -684, 128450, 123270, 220500
79587, -180, -1310, -662, 126140, 36890, 205450
79607, -177, -1194, -604, 113890, -52290, 185710
79627, -170, -1018, -508, 91560, -118230, 150500
79647, -165, -860, -431, 66500, -159320, 106330
79667, -155, -724, -367, 40530, -191800, 66990
79687, -156, -626, -316, 28000, -228690, 41020
79707, -150, -553, -291, 23520, -259840, 16590
79727, -145, -518, -281, 8540, -271530, -16030
79747, -141, -502, -275, -16520, -265370, -53620
79767, -135, -495, -276, -48230, -245140, -93870
79787, -129, -506, -275, -84140, -215880, -134890
79807, -130, -540, -292, -122990, -188580, -166040
79827, -130, -595, -327, -148820, -181370, -177520
79847, -135, -677, -373, -152110, -199220, -169050
79867, -136, -785, -424, -147140, -226660, -152110
79887, -147, -947, -510, -162330, -246960, -136850
79907, -152, -1159, -647, -204400, -256270, -129080
79927, -155, -1357, -790, -245210, -259910, -131530
79947, -155, -1445, -844, -250950, -280980, -129920
79967, -166, -1370, -793, -205380, -349510, -98280
79987, -168, -1214, -690, -147350, -428960, -56350
80007, -169, -1120, -663, -139720, -482160, -25760
80027, -162, -1128, -702, -172060, -502600, -2450
80047, -152, -1204, -758, -184520, -485520, 4760
80067, -142, -1310, -807, -149170, -443800, -1470
80087, -138, -1382, -802, -74410, -404180, -8820
80107, -131, -1392, -773, -10780, -383320, -9870
80127, -139, -1336, -753, 6160, -397880, 10290
80147, -131, -1238, -729, -280, -429030, 44450
80167, -112, -1080, -652, 10920, -421540, 56910
80187, 4, -954, -579, 47040, -364560, 44870
80207, -69, -772, -417, 73290, -277830, 8960
80227, -47, -718, -426, 67410, -213990, -28490
80247, -70, -697, -398, 48440, -223300, 29540
80267, -62, -686, -419, 35700, -198520, 84000
80287, -63, -662, -412, 43260, -139090, 117460
80307, -67, -639, -409, 42490, -22890, 111720
80327, -87, -623, -399, 21000, 128240, 87850
80347, -95, -594, -376, -2240, 273910, 65660
80367, -109, -582, -365, -8820, 371070, 70630
80387, -124, -615, -403, -6370, 412650, 110390
80407, -152, -692, -481, -8400, 434210, 157010
80427, -188, -788, -584, -6510, 476910, 178500
80447, -234, -890, -677, 23800, 553560, 160370
80467, -255, -979, -710, 95830, 647500, 117180
80487, -240, -1121, -690, 189070, 714210, 83720
80507, -220, -1356, -751, 238070, 700350, 99120
80527, -205, -1502, -885, 198380, 603190, 152670
80547, -181, -1409, -876, 147140, 485940, 190820
80567, -169, -1207, -747, 191520, 392560, 201810
80587, -159, -1062, -607, 290500, 320110, 208670
80607, -162, -1020, -547, 343420, 265370, 213850
80627, -166, -1068, -568, 311780, 233870, 208180
80647, -168, -1161, -623, 231980, 215180, 188090
80667, -162, -1266, -678, 174720, 185150, 164500
80687, -164, -1325, -693, 174160, 120190, 154770
80707, -166, -1276, -649, 198380, 33250, 152670
80727, -163, -1132, -566, 196770, -43960, 136920
80747, -152, -960, -477, 154070, -95690, 101570
80767, -147, -824, -425, 103740, -135030, 64890
80787, -142, -720, -382, 79520, -176260, 41230
80807, -139, -645, -343, 82810, -215530, 25270
80827, -132, -579, -301, 90510, -239680, 7070
80847, -123, -534, -273, 74620, -238980, -21700
80867, -121, -522, -272, 27020, -218260, -54040
80887, -119, -529, -279, -33670, -194670, -78820
80907, -119, -557, -308, -81340, -182140, -91980
80927, -119, -601, -335, -104650, -180810, -94780
80947, -120, -661, -363, -105000, -181440, -94290
80967, -117, -727, -384, -96250, -179340, -92960
80987, -119, -816, -417, -96390, -172900, -92470
81007, -126, -940, -493, -125370, -163590, -89460
81027, -135, -1099, -607, -178150, -161070, -81130
81047, -143, -1272, -726, -217350, -180880, -62650
81067, -145, -1330, -751, -211540, -216930, -41090
81087, -142, -1277, -700, -173320, -250320, -27020
81107, -141, -1203, -654, -140140, -279720, -18410
81127, -146, -1190, -683, -145320, -312200, -2730
81147, -147, -1236, -743, -175700, -351330, 26600
81167, -137, -1284, -764, -182280, -374290, 53060
81187, -129, -1311, -749, -145460, -358400, 54600
81207, -129, -1332, -733, -96250, -321650, 41930
81227, -131, -1329, -737, -69090, -300580, 39200
81247, -130, -1297, -747, -56770, -339360, 90510
81267, -121, -1192, -693, -29050, -334390, 103040
81287, -104, -1061, -602, 3640, -287280, 91070
81307, -58, -963, -539, 21630, -234150, 82600
81327, -79, -852, -472, 21840, -191310, 88620
81347, -81, -789, -442, 11760, -153090, 106120
81367, -77, -748, -437, 6160, -105560, 127190
81387, -78, -721, -432, 13230, -44730, 141470
81407, -79, -684, -421, 20790, 42420, 138670
81427, -83, -639, -402, 22260, 145950, 127890
81447, -91, -595, -382, 21280, 241850, 124460
81467, -105, -569, -380, 22120, 317940, 135170
81487, -125, -567, -398, 29470, 378070, 153370
81507, -144, -590, -434, 45780, 434140, 168140
81527, -171, -619, -481, 74970, 494270, 173250
81547, -195, -655, -521, 122010, 555870, 169330
81567, -210, -709, -552, 187600, 603120, 167720
81587, -216, -821, -587, 250320, 623700, 179340
81607, -219, -1030, -648, 275030, 616140, 205730
81627, -217, -1313, -770, 247380, 579600, 236180
81647, -200, -1523, -888, 201670, 505890, 263060
81667, -181, -1497, -852, 192360, 399350, 287560
81687, -172, -1334, -740, 218050, 275730, 313880
81707, -165, -1156, -628, 235200, 170170, 328860
81727, -162, -1055, -560, 221970, 119630, 311290
81747, -159, -1026, -533, 184450, 100870, 276220
81767, -162, -1082, -560, 142730, 76650, 245490
81787, -168, -1188, -613, 118370, 34720, 222110
81807, -175, -1302, -672, 106750, -14770, 196700
81827, -182, -1340, -694, 94500, -65730, 163100
81847, -178, -1241, -633, 79660, -115220, 120400
81867, -175, -1082, -552, 65310, -174300, 81410
81887, -176, -932, -487, 55650, -247240, 57400
81907, -171, -796, -429, 54390, -309820, 35910
81927, -163, -674, -370, 52290, -343210, 4200
81947, -155, -592, -329, 37240, -350560, -34510
81967, -149, -536, -301, 9100, -344050, -72310
81987, -138, -504, -292, -28280, -330610, -105210
82007, -136, -494, -291, -66150, -312410, -133210
82027, -131, -504, -304, -88480, -300860, -148470
82047, -128, -524, -308, -95200, -292740, -158130
82067, -121, -562, -324, -97090, -283080, -162050
82087, -120, -624, -347, -106190, -270200, -160650
82107, -119, -727, -396, -126770, -259210, -150640
82127, -128, -883, -488, -159530, -256830, -131250
82147, -142, -1139, -661, -197820, -261660, -106750
82167, -148, -1359, -797, -214340, -270900, -87430
82187, -147, -1446, -821, -184940, -284340, -78400
82207, -154, -1353, -749, -133630, -316610, -65870
82227, -158, -1194, -676, -106610, -379610, -34510
82247, -160, -1091, -650, -109970, -450100, 9450
82267, -148, -1073, -664, -115500, -489510, 45360
82287, -135, -1119, -687, -102060, -476350, 55650
82307, -124, -1204, -706, -70490, -414680, 38290
82327, -119, -1333, -749, -36190, -343350, 15050
82347, -121, -1456, -818, -11200, -309400, 14700
82367, -123, -1463, -832, 9240, -319340, 38570
82387, -115, -1319, -753, 36260, -340270, 65100
82407, -102, -1129, -644, 61880, -335720, 75530
82427, -86, -945, -531, 77770, -298830, 72310
82447, -74, -812, -455, 88410, -252420, 74130
82467, -70, -738, -422, 89040, -207480, 89950
82487, -67, -693, -407, 79870, -153440, 110950
82507, -68, -671, -404, 65730, -77350, 124320
82527, -75, -661, -406, 49000, 18900, 128380
82547, -85, -642, -406, 34860, 122080, 129570
82567, -97, -628, -400, 28700, 217140, 135730
82587, -113, -624, -409, 28630, 295540, 150360
82607, -136, -641, -440, 26110, 360220, 169540
82627, -160, -674, -487, 19250, 422940, 185080
82647, -188, -712, -534, 18200, 491890, 187740
82667, -208, -745, -569, 42770, 561820, 178360
82687, -219, -786, -585, 101780, 615790, 168700
82707, -225, -853, -603, 174230, 642880, 172830
82727, -227, -946, -637, 222530, 646030, 190750
82747, -222, -1050, -679, 232960, 632450, 211960
82767, -208, -1162, -723, 228200, 598570, 233520
82787, -193, -1254, -745, 230790, 541030, 256270
82807, -185, -1306, -751, 243950, 459340, 284830
82827, -184, -1279, -717, 255220, 361480, 315490
82847, -176, -1214, -656, 245840, 282800, 325010
82867, -169, -1162, -619, 212520, 233800, 307440
82887, -166, -1140, -598, 176050, 181440, 289100
82907, -167, -1133, -587, 153860, 116200, 278390
82927, -170, -1143, -593, 140070, 52290, 265510
82947, -172, -1140, -588, 122640, 560, 241570
82967, -167, -1101, -558, 99260, -32970, 201950
82987, -165, -1039, -520, 75460, -57050, 152180
83007, -168, -979, -501, 56000, -97160, 113330
83027, -165, -880, -453, 42910, -210140, 64470
83047, -163, -791, -414, 37030, -244300, 32130
83067, -160, -700, -364, 21280, -263830, -3570
83087, -149, -628, -334, -7560, -270900, -38710
83107, -143, -570, -308, -38710, -271670, -70140
83127, -140, -535, -298, -63140, -276010, -90720
83147, -135, -521, -295, -78960, -278180, -107730
83167, -128, -528, -305, -97790, -268450, -124880
83187, -124, -556, -315, -120330, -244860, -143570
83207, -122, -616, -345, -143570, -217700, -156940
83227, -121, -705, -385, -167300, -194320, -162610
83247, -128, -879, -484, -189560, -183820, -155960
83267, -137, -1097, -611, -203630, -188580, -142520
83287, -147, -1344, -746, -202440, -208950, -127190
83307, -154, -1469, -815, -196420, -239260, -117390
83327, -151, -1373, -766, -191310, -288330, -103180
83347, -153, -1192, -675, -182350, -356160, -72170
83367, -154, -1075, -636, -175630, -422520, -28560
83387, -146, -1036, -631, -174580, -451220, 4340
83407, -133, -1055, -641, -172130, -426020, 9870
83427, -126, -1140, -676, -164780, -370720, 210
83447, -125, -1278, -745, -144270, -326970, -840
83467, -128, -1412, -805, -102760, -310730, 11200
83487, -126, -1408, -786, -55790, -315910, 29680
83507, -126, -1288, -722, -30310, -332220, 50890
83527, -116, -1119, -641, -27580, -335930, 65940
83547, -103, -969, -561, -19530, -317940, 74200
83567, -91, -848, -491, 2450, -283150, 82530
83587, -78, -761, -442, 19740, -229110, 88060
83607, -69, -699, -406, 25480, -157640, 91140
83627, -66, -654, -384, 24850, -77560, 96670
83647, -66, -625, -376, 17290, 5530, 106820
83667, -75, -612, -377, 4760, 91840, 118300
83687, -90, -616, -398, -6090, 180320, 128380
83707, -109, -630, -420, -7490, 266280, 135940
83727, -128, -650, -448, 6440, 345800, 140840
83747, -151, -681, -473, 34230, 418040, 143150
83767, -170, -716, -500, 66570, 482930, 142240
83787, -188, -764, -532, 100520, 534590, 143430
83807, -203, -830, -572, 133980, 568540, 149380
83827, -206, -911, -614, 162890, 586460, 156730
83847, -202, -1005, -643, 190260, 585060, 167650
83867, -193, -1123, -689, 215740, 551670, 190960
83887, -188, -1237, -738, 233380, 486710, 225890
83907, -181, -1281, -737, 241500, 414960, 254170
83927, -175, -1255, -707, 238910, 350630, 266070
83947, -169, -1208, -664, 228200, 286300, 269570
83967, -161, -1159, -618, 216160, 219660, 269780
83987, -160, -1136, -599, 200760, 154350, 266840
84007, -159, -1137, -602, 177520, 95200, 259000
84027, -160, -1146, -598, 154560, 50820, 238770
84047, -161, -1155, -590, 135800, 18410, 207200
84067, -161, -1145, -585, 114520, -16940, 174160
84087, -163, -1097, -560, 92330, -63840, 145740
84107, -160, -1022, -528, 78190, -117460, 120890
84127, -160, -920, -479, 70000, -168980, 96810
84147, -155, -824, -430, 63420, -208810, 69720
84167, -148, -749, -386, 55230, -231070, 36610
84187, -145, -691, -361, 41090, -243950, 4620
84207, -140, -646, -347, 18830, -250530, -25130
84227, -137, -612, -333, -10080, -247590, -54040
84247, -130, -582, -316, -33040, -240590, -79450
84267, -125, -570, -308, -50330, -236810, -97440
84287, -123, -586, -323, -70070, -235900, -106470
84307, -122, -625, -350, -92260, -232120, -110250
84327, -118, -676, -367, -113750, -217070, -115920
84347, -116, -776, -417, -137130, -192710, -123480
84367, -125, -924, -507, -166950, -173390, -123130
84387, -131, -1106, -616, -193340, -166880, -113610
84407, -138, -1278, -703, -202440, -171010, -103250
84427, -141, -1356, -747, -196910, -185710, -94150
84447, -140, -1293, -712, -185710, -219870, -79660
84467, -140, -1173, -654, -177240, -268870, -57610
84487, -138, -1096, -632, -178360, -319830, -27510
84507, -131, -1067, -631, -186760, -354060, 2940
84527, -122, -1087, -641, -186830, -354340, 20930
84547, -117, -1149, -660, -175910, -321160, 23100
84567, -119, -1244, -709, -157920, -278390, 21140
84587, -119, -1326, -741, -135380, -251440, 28000
84607, -120, -1316, -737, -112490, -245140, 43890
84627, -118, -1236, -697, -91280, -254660, 65730
84647, -109, -1102, -620, -73080, -260120, 84280
84667, -99, -969, -545, -56630, -244160, 90650
84687, -92, -861, -484, -39550, -218190, 97510
84707, -83, -780, -448, -26040, -186270, 108920
84727, -79, -724, -424, -19810, -139650, 117740
84747, -78, -682, -407, -15610, -77770, 123130
84767, -81, -652, -401, -10780, -4620, 126770
84787, -88, -631, -398, -1260, 164920, 126840
84807, -99, -619, -402, 8260, 247590, 127960
84827, -114, -621, -414, 22610, 320320, 133000
84847, -130, -630, -432, 44940, 382830, 140840
84867, -149, -653, -459, 75600, 436590, 148470
84887, -167, -691, -491, 112770, 481810, 154980
84907, -182, -751, -527, 153230, 517510, 161420
84927, -190, -831, -562, 190890, 538300, 171430
