T [ms],AccX [mg],AccY [mg],AccZ [mg],GyroX [mdps],GyroY [mdps],GyroZ [mdps]
1657, 238, 793, 753, 79030, -60620, 34860
1677, 306, 795, 681, 98840, -54320, 50750
1697, 233, 798, 599, 98140, -59080, 46550
1717, 187, 782, 551, 77700, -36680, 17150
1737, 246, 726, 513, 21490, -6370, -16660
1757, 253, 694, 547, 2100, -4270, -22190
1777, 253, 746, 602, -6020, 3010, -36330
1797, 343, 693, 606, -2730, -11970, -32060
1817, 345, 743, 638, 3430, -21280, -30030
1837, 330, 775, 696, 13090, -23310, -36330
1857, 295, 687, 497, 9240, -17360, -43750
1877, 240, 731, 567, 17640, -840, -33460
1897, 264, 732, 599, 14770, 1680, -23450
1917, 324, 753, 673, 15820, -7630, -15610
1937, 432, 718, 667, 18480, 14420, -45010
1957, 423, 711, 628, 30590, 47320, -79660
1977, 349, 731, 608, 35560, 52010, -83720
1997, 353, 776, 628, 31920, 35490, -62580
2017, 232, 722, 599, 40320, 25060, -51730
2037, 103, 692, 468, 52150, 38990, -70770
2057, 96, 731, 433, 53410, 54390, -106750
2077, 17, 745, 415, 41020, 54810, -120120
2097, -111, 778, 394, 40740, 52500, -121100
2117, -171, 809, 369, 42140, 45640, -119420
2137, 182, 1442, 851, 69440, 43190, -125650
2157, -235, 767, 343, 67130, 52150, -114100
2177, -363, 845, 331, 5670, 40950, -85890
2197, -350, 859, 336, 14420, 39900, -88900
2217, -457, 828, 257, 17010, 43470, -87780
2237, -404, 831, 276, 13790, 47880, -91420
2257, -517, 807, 250, 9310, 41160, -79660
2277, -484, 861, 292, -4060, 39340, -69230
2297, -529, 863, 378, -15050, 34020, -56420
2317, -509, 846, 343, -19250, 31990, -49770
2337, -487, 865, 371, -13650, 30520, -47110
2357, -458, 877, 390, -16870, 27370, -34440
2377, -435, 852, 412, -19180, 12670, -14560
2397, -462, 862, 381, -15750, 4970, -7210
2417, -459, 857, 368, -11270, 7770, -13370
2437, -470, 820, 377, -9870, 13230, -17360
2457, -477, 868, 339, -13230, 18830, -16170
2477, -494, 782, 372, -9870, 22540, -22750
2497, -413, 792, 413, -16590, 14350, -7490
2517, -509, 767, 346, -17500, 14630, -9310
2537, -518, 790, 302, -16590, 19600, -17150
2557, -532, 758, 321, -17850, 23030, -24500
2577, -519, 783, 384, -24570, 27930, -23940
2597, -555, 807, 430, -24990, 33600, -31500
2617, -536, 815, 427, -24360, 35770, -37030
2637, -632, 747, 340, -28070, 30240, -29610
2657, -587, 763, 433, -30730, 23240, -19670
2677, -480, 758, 508, -36330, 22190, -10220
2697, -501, 745, 515, -26040, 32410, -14210
2717, -599, 756, 423, -16940, 36750, -24710
2737, -594, 747, 392, -11060, 31080, -31150
2757, -594, 746, 447, -17920, 29190, -22400
2777, -500, 705, 567, -27720, 36260, -19810
2797, -487, 729, 556, -29750, 41440, -19460
2817, -573, 710, 454, -17990, 30240, -26250
2837, -681, 604, 396, -6580, 18060, -30030
2857, -673, 657, 376, -10920, 17570, -26810
2877, -718, 633, 325, -9310, 23590, -36890
2897, -678, 633, 355, -8470, 31360, -46340
2917, -735, 610, 381, -10990, 30590, -43260
2937, -794, 583, 341, -19670, 24360, -30310
2957, -703, 592, 338, -25970, 17710, -20930
2977, -703, 570, 309, -29540, 20790, -20300
2997, -641, 593, 415, -32760, 25340, -21000
3017, -637, 551, 430, -42280, 34020, -22610
3037, -686, 566, 325, -45220, 40530, -28140
3057, -718, 599, 306, -37170, 37030, -39480
3077, -646, 637, 437, -39060, 42700, -48160
3097, -581, 606, 504, -42980, 56910, -55580
3117, -629, 559, 462, -39130, 57960, -58870
3137, -749, 499, 320, -29890, 45360, -59360
3157, -813, 449, 232, -23380, 32480, -60270
3177, -873, 466, 331, -28280, 24640, -53900
3197, -709, 381, 340, -38290, 30940, -53480
3217, -694, 311, 346, -47390, 28280, -53480
3237, -687, 281, 320, -50120, 23730, -49000
3257, -697, 328, 406, -56140, 19250, -24990
3277, -679, 304, 154, -48440, 67830, -19320
3297, -422, -292, -273, -8260, 109620, -23240
3317, -436, -228, -355, 93870, -231420, -38360
3337, -818, 595, 349, 318430, -456750, -234150
3357, -77, -17, -535, 551810, -463400, -471240
3377, -359, -26, -426, 949270, -493010, -210350
3397, -599, -60, -615, 972020, 55510, -224910
3417, -946, 16, -647, 894390, 493010, -415100
3437, -838, 154, -791, 955010, 854490, -577850
3457, -646, 135, -625, 1148070, 975660, -689220
3477, -1116, -757, -739, 952560, 1265740, -227360
3497, -1998, -1998, -1878, 151060, 1587880, 132860
3517, -1760, -1998, -1997, -212240, 873600, 726180
3537, -970, -936, -432, 357350, 530460, 650580
3557, -402, -432, -273, 393540, 616420, 497840
3577, -483, -259, -309, 331660, 292320, 801080
3597, -786, -533, -393, 229950, 356650, 985110
3617, -689, -677, -721, 147700, 408380, 872760
3637, -974, -818, -888, 333900, 591780, 547680
3657, -1141, -696, -1126, 702660, 823410, 90230
3677, -947, -457, -712, 1087240, 969220, -261310
3697, -1235, -1404, -818, 879340, 1179570, -160650
3717, -1655, -1998, -1262, -54670, 1406720, 144410
3737, -1057, -1786, -1173, -361900, 1072330, 306040
3757, -659, -879, -653, 405930, 279580, 404670
3777, -443, -498, -364, 837760, 119980, 276290
3797, -483, -528, -349, 632240, 296240, 218260
3817, -529, -599, -418, 391580, 451640, 219590
3837, -564, -612, -414, 338310, 501200, 171080
3857, -517, -578, -426, 446740, 437500, 138880
3877, -530, -615, -481, 562170, 369040, 87640
3897, -515, -598, -403, 588840, 396060, 29400
3917, -478, -568, -195, 451570, 506730, 36890
3937, -635, -748, -298, 87710, 598500, 156870
3957, -913, -1226, -695, -242760, 422450, 436450
3977, -818, -1252, -797, -132160, 71610, 569240
3997, -623, -852, -592, 293720, -61950, 325150
4017, -421, -516, -318, 553420, 53200, 3500
4037, -272, -329, -119, 506660, 196210, -125650
4057, -278, -319, -104, 243530, 306600, -54810
4077, -348, -394, -195, -39970, 331730, 117390
4097, -381, -429, -214, -164010, 270620, 236180
4117, -393, -476, -251, -118860, 180880, 242620
4137, -416, -491, -259, -27440, 127750, 159180
4157, -429, -493, -268, 75670, 121240, 11200
4177, -456, -507, -273, 169960, 117180, -140490
4197, -471, -580, -281, 230650, 109830, -255220
4217, -528, -774, -378, 235200, 88970, -304010
4237, -639, -1046, -445, 210210, 38150, -275240
4257, -1020, -1634, -737, 80710, 41860, -216370
4277, -1095, -1875, -950, -193410, 110110, -207620
4297, -1068, -1656, -815, -244230, 18410, -241500
4317, -851, -1245, -699, -102410, -213220, -242760
4337, -678, -920, -490, 52290, -442540, -271180
4357, -540, -748, -381, -30660, -401100, -356090
4377, -511, -671, -301, -279020, -225610, -432740
4397, -664, -851, -463, -451640, -151550, -408380
4417, -849, -1206, -756, -496440, -285530, -279300
4437, -963, -1452, -850, -401170, -444710, -230720
4457, -959, -1510, -792, -315700, -384300, -370230
4477, -872, -1334, -649, -355530, -236530, -517230
4497, -814, -1083, -639, -419930, -288750, -456190
4517, -796, -954, -683, -442540, -569800, -200900
4537, -687, -866, -672, -478240, -731150, -23590
4557, -582, -788, -579, -508620, -664860, -41580
4577, -525, -696, -449, -500710, -496930, -151270
4597, -541, -685, -403, -458360, -377930, -234780
4617, -610, -742, -444, -404600, -384720, -227430
4637, -673, -839, -545, -336000, -504770, -150150
4657, -665, -885, -602, -283570, -622720, -88060
4677, -608, -828, -538, -255640, -620690, -124740
4697, -531, -694, -409, -233240, -515130, -237160
4717, -479, -578, -329, -216720, -437010, -307160
4737, -469, -521, -329, -216440, -471240, -256550
4757, -458, -511, -367, -239890, -565530, -132650
4777, -421, -504, -383, -277550, -615580, -33740
4797, -365, -489, -358, -306880, -567280, -16240
4817, -337, -466, -307, -320040, -437150, -73150
4837, -312, -423, -244, -309960, -289590, -153860
4857, -283, -381, -199, -267050, -197890, -202860
4877, -281, -383, -190, -216300, -180250, -190400
4897, -313, -457, -239, -192080, -205800, -120890
4917, -378, -601, -334, -190470, -241080, -24290
4937, -454, -786, -445, -180180, -259140, 58310
4957, -533, -968, -521, -143360, -232120, 87780
4977, -638, -1158, -557, -97580, -144900, 57470
4997, -775, -1415, -698, -103180, -32200, 22260
5017, -860, -1575, -841, -168490, 4410, 61670
5037, -730, -1346, -702, -172690, -59640, 142310
5057, -574, -1057, -505, -69090, -102130, 144480
5077, -504, -913, -431, 24990, -100800, 118440
5097, -531, -931, -490, 20790, -103670, 168490
5117, -599, -1052, -592, -44170, -100310, 263410
5137, -676, -1198, -658, -106960, -23030, 291830
5157, -728, -1309, -667, -122150, 117880, 219030
5177, -758, -1387, -667, -68600, 214900, 135660
5197, -812, -1475, -753, 10430, 188580, 145810
5217, -792, -1414, -766, 30100, 80780, 305620
5237, -695, -1208, -643, -28770, 181300, 258440
5257, -644, -1084, -567, -58030, 275520, 210070
5277, -616, -1015, -530, -52500, 299110, 204890
5297, -589, -961, -509, -2940, 273210, 215390
5317, -550, -894, -479, 62370, 254310, 214900
5337, -538, -849, -455, 90440, 274400, 206990
5357, -562, -862, -473, 55650, 332150, 202020
5377, -589, -878, -486, 15610, 388570, 187110
5397, -576, -844, -469, 41510, 409150, 149100
5417, -521, -751, -412, 126840, 391580, 103530
5437, -454, -651, -351, 204820, 357070, 86590
5457, -412, -577, -309, 219520, 333060, 114870
5477, -412, -559, -305, 175560, 332080, 167650
5497, -422, -547, -304, 130340, 340200, 206220
5517, -416, -529, -301, 129990, 336140, 210630
5537, -392, -488, -281, 176330, 317590, 185570
5557, -353, -432, -253, 240660, 295260, 153090
5577, -317, -380, -221, 286650, 277270, 139160
5597, -301, -359, -206, 293160, 267820, 158060
5617, -319, -385, -219, 259490, 269360, 203280
5637, -365, -453, -255, 204820, 281820, 253260
5657, -423, -549, -314, 150780, 304920, 284130
5677, -501, -689, -390, 113960, 337470, 283570
5697, -581, -837, -461, 103810, 375060, 254240
5717, -668, -1006, -521, 107520, 407120, 213640
5737, -744, -1181, -575, 102900, 412020, 191800
5757, -818, -1346, -669, 71470, 368690, 217140
5777, -853, -1406, -742, 13370, 310660, 264180
5797, -799, -1291, -678, -31430, 306460, 249970
5817, -701, -1108, -546, -30240, 347970, 163380
5837, -631, -988, -453, -11270, 360010, 94640
5857, -630, -1002, -463, -12880, 319340, 91420
5877, -692, -1128, -551, -40460, 269640, 111860
5897, -797, -1318, -654, -69860, 259070, 92680
5917, -868, -1454, -697, -82530, 287140, 24430
5937, -890, -1509, -702, -85050, 299320, -45220
5957, -844, -1431, -661, -85400, 243880, -66500
5977, -742, -1247, -575, -86590, 143150, -53270
5997, -642, -1062, -488, -101010, 61110, -45150
6017, -582, -941, -439, -139440, 23100, -48440
6037, -553, -882, -420, -181510, 12390, -60900
6057, -550, -862, -408, -199010, 8820, -86310
6077, -545, -850, -391, -190540, 1820, -123550
6097, -540, -824, -365, -172690, -21700, -155050
6117, -535, -813, -372, -167090, -75460, -154980
6137, -536, -808, -395, -179270, -154490, -118930
6157, -526, -783, -406, -200550, -222460, -81200
6177, -499, -731, -384, -227920, -244020, -76300
6197, -470, -662, -345, -251650, -232400, -100170
6217, -442, -590, -307, -261450, -226800, -124530
6237, -417, -527, -283, -250600, -252280, -132860
6257, -388, -471, -266, -227150, -296870, -130970
6277, -368, -430, -254, -211680, -329910, -132230
6297, -356, -409, -248, -214060, -335300, -141960
6317, -356, -406, -245, -222530, -323820, -159670
6337, -361, -419, -250, -221690, -308700, -183820
6357, -372, -446, -262, -208530, -296870, -212240
6377, -394, -497, -284, -190330, -285180, -240730
6397, -429, -582, -317, -180250, -266070, -265580
6417, -497, -720, -377, -188300, -230650, -287770
6437, -605, -922, -474, -213780, -182350, -309400
6457, -721, -1142, -572, -236110, -139930, -330330
6477, -797, -1295, -643, -225610, -140070, -340620
6497, -794, -1297, -658, -199500, -202160, -314510
6517, -710, -1161, -620, -214970, -280490, -254100
6537, -611, -1010, -544, -281330, -304850, -202230
6557, -550, -892, -482, -340480, -267750, -186760
6577, -530, -873, -464, -357980, -217280, -189070
6597, -560, -955, -507, -349440, -183540, -180390
6617, -639, -1130, -598, -332990, -162820, -159600
6637, -742, -1341, -698, -314090, -138320, -138950
6657, -808, -1474, -750, -289940, -110740, -124950
6677, -803, -1457, -748, -269150, -100730, -100520
6697, -736, -1322, -697, -265720, -122780, -47110
6717, -659, -1182, -632, -266210, -150850, 14000
6737, -592, -1063, -560, -256130, -140280, 40320
6757, -541, -975, -500, -227710, -98980, 33880
6777, -529, -947, -485, -192990, -58030, 27860
6797, -535, -955, -490, -168770, -29610, 40320
6817, -541, -956, -491, -153580, -6300, 62580
6837, -532, -916, -451, -135450, 14980, 80220
6857, -520, -902, -459, -117530, 34510, 91210
6877, -510, -870, -449, -105210, 41510, 105140
6897, -478, -807, -411, -62720, 44660, 108430
6917, -435, -720, -362, -26670, 75320, 84280
6937, -396, -636, -314, -11690, 113190, 63070
6957, -365, -574, -284, 9030, 127750, 66710
6977, -345, -524, -268, 47320, 126210, 109200
6997, -329, -485, -256, 70070, 131810, 123620
7017, -313, -447, -246, 100380, 145810, 125650
7037, -308, -427, -244, 132720, 165340, 121170
7057, -314, -419, -242, 164010, 189490, 111790
7077, -327, -430, -248, 194390, 212310, 99050
7097, -339, -444, -256, 229320, 224490, 86170
7117, -360, -487, -271, 260470, 225190, 81620
7137, -400, -577, -314, 272020, 221060, 93100
7157, -465, -713, -384, 270130, 214130, 118370
7177, -546, -875, -464, 259910, 209020, 148680
7197, -655, -1082, -559, 233870, 210910, 174930
7217, -726, -1223, -620, 195650, 209580, 197260
7237, -751, -1285, -654, 162050, 186410, 219520
7257, -721, -1229, -622, 146020, 144410, 240870
7277, -655, -1122, -571, 149030, 100240, 249760
7297, -600, -1026, -513, 166390, 61110, 255570
7317, -586, -1002, -509, 160720, 47040, 263060
7337, -624, -1056, -538, 117740, 73500, 263130
7357, -681, -1159, -588, 62580, 120610, 247310
7377, -740, -1271, -630, 40320, 139440, 229110
7397, -769, -1340, -659, 52920, 108080, 226170
7417, -777, -1355, -667, 59850, 59710, 240380
7437, -749, -1294, -646, 32550, 33600, 252630
7457, -687, -1183, -593, 2800, 31430, 247380
7477, -633, -1073, -528, -9800, 38780, 223790
7497, -583, -979, -474, -20090, 49560, 199500
7517, -569, -937, -451, -32970, 49980, 187950
7537, -563, -929, -453, -41090, 35490, 185990
7557, -560, -927, -456, -32970, 13860, 180460
7577, -554, -918, -451, -21770, 5390, 161910
7597, -538, -889, -430, -23730, 18900, 133000
7617, -517, -836, -395, -35280, 36330, 104370
7637, -485, -772, -361, -45780, 36470, 88900
7657, -455, -711, -328, -47880, 15050, 85540
7677, -421, -646, -301, -43260, -13300, 85190
7697, -396, -596, -282, -41090, -36190, 82950
7717, -379, -560, -270, -43470, -47040, 75390
7737, -363, -532, -258, -43750, -46550, 58590
7757, -352, -513, -251, -38920, -36960, 32690
7777, -349, -501, -243, -30310, -23450, 2310
7797, -352, -503, -244, -18480, -10850, -29050
7817, -363, -520, -245, -6510, -980, -59430
7837, -386, -554, -261, 3360, 4270, -86450
7857, -421, -620, -294, 11830, 2100, -107800
7877, -466, -702, -336, 21140, -7280, -124880
7897, -520, -805, -391, 29610, -18550, -141890
7917, -581, -926, -447, 30310, -25200, -160580
7937, -642, -1040, -502, 16520, -26880, -177660
7957, -686, -1114, -536, -14000, -29470, -188790
7977, -694, -1117, -544, -45220, -45850, -195230
7997, -679, -1081, -533, -57610, -81620, -202020
8017, -667, -1058, -529, -61740, -119070, -214900
8037, -676, -1070, -535, -74830, -137200, -236040
8057, -700, -1114, -558, -94850, -135730, -264390
8077, -728, -1179, -581, -117180, -123480, -295470
8097, -757, -1238, -604, -144480, -113330, -316190
8117, -780, -1279, -640, -180740, -121450, -311220
8137, -765, -1257, -647, -213220, -154490, -286090
8157, -714, -1176, -608, -222880, -192150, -266420
8177, -654, -1082, -552, -228550, -197540, -268870
8197, -614, -1019, -517, -253680, -174510, -272790
8217, -603, -1001, -516, -285670, -159040, -251930
8237, -607, -1022, -537, -304640, -162680, -212590
8257, -619, -1057, -560, -303310, -170170, -175700
8277, -624, -1079, -567, -287280, -166600, -153860
8297, -603, -1048, -544, -263760, -154140, -143710
8317, -571, -996, -512, -241990, -141750, -131670
8337, -551, -952, -491, -234570, -132720, -105630
8357, -531, -905, -471, -238490, -129570, -65030
8377, -500, -845, -445, -231280, -134050, -23940
8397, -458, -766, -400, -201040, -139090, 1820
8417, -411, -684, -354, -158550, -132510, 7770
8437, -373, -617, -317, -120750, -112000, 3920
8457, -345, -560, -284, -94360, -83300, 1890
8477, -327, -526, -267, -73920, -54950, 6230
8497, -317, -501, -256, -52290, -32200, 15820
8517, -312, -487, -253, -27160, -12740, 26670
8537, -310, -479, -250, 1890, 5950, 35490
8557, -314, -476, -253, 36470, 22820, 41230
8577, -322, -484, -263, 77070, 37450, 42000
8597, -340, -511, -285, 119840, 53620, 36120
8617, -364, -546, -308, 160160, 76020, 22330
8637, -387, -582, -329, 198520, 103040, 2240
8657, -421, -643, -353, 234430, 128100, -15190
8677, -478, -756, -398, 258230, 148680, -20510
8697, -569, -941, -481, 260960, 162750, -8960
8717, -683, -1164, -606, 225610, 141260, 55860
8737, -782, -1361, -700, 215950, 98840, 88620
8757, -800, -1405, -733, 225890, 44240, 104090
8777, -748, -1315, -683, 245210, 560, 97930
8797, -687, -1203, -613, 243880, -20160, 86660
8817, -643, -1106, -557, 223790, -33810, 82180
8837, -646, -1106, -556, 200270, -55160, 86450
8857, -646, -1151, -597, 185850, -88620, 90720
8877, -694, -1228, -623, 178080, -106120, 92400
8897, -815, -1418, -729, 118230, -66290, 76510
8917, -818, -1448, -739, 104650, -64400, 37590
8937, -759, -1367, -678, 160720, -136850, 25480
8957, -692, -1217, -617, 157360, -201390, 48300
8977, -639, -1095, -548, 101850, -198170, 53060
8997, -588, -996, -510, 51100, -183260, 41790
9017, -532, -887, -452, 66360, -200060, 30590
9037, -485, -804, -410, 95270, -215600, 15540
9057, -469, -773, -392, 73430, -184800, -5390
9077, -462, -759, -376, 44450, -146510, -25620
9097, -465, -761, -374, 42770, -135660, -30590
9117, -457, -753, -373, 46130, -141470, -24920
9137, -437, -722, -355, 38640, -133350, -22750
9157, -425, -696, -336, 7280, -106610, -19670
9177, -421, -672, -327, -33950, -74900, -12530
9197, -401, -630, -304, -38990, -68320, -6300
9217, -364, -569, -277, -4550, -87710, -3920
9237, -323, -510, -250, 23450, -98350, -3710
9257, -292, -464, -228, 15190, -76720, 350
9277, -281, -440, -218, -17990, -32060, 13090
9297, -291, -445, -222, -54880, 17850, 31990
9317, -311, -471, -235, -79520, 63070, 46270
9337, -330, -507, -252, -79450, 96180, 49000
9357, -355, -559, -280, -59430, 121170, 40950
9377, -411, -664, -335, -42980, 156100, 26600
9397, -339, -750, -473, -46900, 209860, 11690
9417, -578, -1073, -748, -63560, 281610, 14980
9437, -880, -1394, -856, -48090, 482160, 99960
9457, -992, -1522, -805, 111720, 557900, 179550
9477, -868, -1388, -757, 239050, 520100, 163100
9497, -838, -1211, -615, 182350, 516180, 120190
9517, -684, -1034, -565, 92680, 542570, 118860
9537, -648, -928, -507, 133560, 453670, 100940
9557, -652, -939, -541, 216090, 394100, 72590
9577, -731, -1022, -553, 249200, 403620, 7350
9597, -784, -1177, -581, 238910, 469910, -86030
9617, -835, -1376, -659, 245000, 433230, -111860
9637, -917, -1554, -786, 240660, 302260, -55020
9657, -894, -1481, -750, 190190, 205100, -8190
9677, -767, -1254, -598, 147280, 198870, -58100
9697, -671, -1097, -522, 155260, 155890, -107170
9717, -613, -998, -493, 175000, 41440, -89390
9737, -566, -916, -459, 165200, -30100, -82180
9757, -524, -832, -404, 130620, -25060, -115640
9777, -491, -772, -350, 96810, -1960, -151130
9797, -488, -769, -353, 65100, -13790, -146720
9817, -493, -788, -380, 24360, -55160, -110040
9837, -495, -782, -387, -8890, -86730, -86660
9857, -477, -744, -363, -20860, -93030, -97790
9877, -441, -679, -326, -6860, -98140, -123620
9897, -394, -608, -286, 17780, -120680, -135450
9917, -363, -559, -265, 13440, -142520, -123060
9937, -347, -532, -256, -33460, -143430, -92190
9957, -342, -509, -249, -89180, -129710, -58310
9977, -338, -493, -240, -119840, -118860, -33390
9997, -331, -476, -234, -118440, -122150, -19180
10017, -314, -455, -224, -94010, -137270, -12600
10037, -308, -454, -222, -66850, -150920, -9940
10057, -319, -481, -242, -56490, -151340, -5460
10077, -345, -531, -265, -61180, -139790, 3290
10097, -376, -597, -296, -64050, -126210, 12880
10117, -424, -691, -339, -58310, -116830, 21700
10137, -493, -831, -406, -48440, -114100, 32480
10157, -598, -1026, -505, -42350, -118230, 48930
10177, -725, -1270, -643, -45990, -126770, 69300
10197, -806, -1425, -733, -52220, -142030, 86170
10217, -771, -1371, -689, -34860, -162050, 80570
10237, -690, -1213, -601, -3710, -181650, 58170
10257, -641, -1098, -553, -2800, -206850, 60550
10277, -630, -1077, -563, -25620, -241850, 91560
10297, -633, -1093, -584, -32620, -272860, 115290
10317, -654, -1143, -603, -13440, -278670, 103670
10337, -700, -1226, -636, 8470, -254940, 63210
10357, -759, -1328, -679, 14140, -223930, 23800
10377, -800, -1400, -724, 10080, -218400, 6020
10397, -786, -1362, -710, 7700, -243950, 7700
10417, -728, -1250, -655, 13860, -282800, 12110
10437, -660, -1119, -596, 21140, -314510, 10780
10457, -595, -993, -531, 19810, -316820, -18200
10477, -539, -892, -475, 7000, -290290, -43190
10497, -516, -843, -443, 350, -263340, -62580
10517, -505, -825, -432, 2310, -247520, -71820
10537, -498, -817, -427, 9590, -238700, -74620
10557, -485, -801, -416, 12740, -222740, -78120
10577, -464, -773, -399, 7280, -196070, -82390
10597, -441, -734, -374, 420, -167440, -82460
10617, -417, -689, -349, -5320, -142800, -75250
10637, -385, -634, -318, -5740, -123760, -62160
10657, -355, -581, -292, -2660, -107450, -44030
10677, -334, -545, -275, -2800, -86730, -22610
10697, -317, -520, -264, -1540, -59780, -3010
10717, -307, -501, -254, 7490, -28980, 12040
10737, -298, -485, -249, 18060, 7700, 22960
10757, -305, -492, -252, 17360, 55650, 33460
10777, -328, -524, -268, 2030, 115080, 45010
10797, -369, -583, -301, -14630, 174160, 56560
10817, -412, -657, -337, -16520, 219940, 65590
10837, -466, -750, -385, -6510, 254660, 70210
10857, -535, -870, -446, -700, 286720, 72240
10877, -612, -1013, -511, -2380, 313810, 76440
10897, -693, -1155, -584, -3640, 323050, 87920
10917, -741, -1247, -640, 3010, 313880, 98000
10937, -730, -1222, -629, 14420, 307440, 90370
10957, -693, -1139, -581, 16730, 324240, 64260
10977, -654, -1054, -524, 16660, 343980, 37450
10997, -630, -1011, -500, 29960, 337750, 23450
11017, -634, -1022, -513, 46270, 315910, 18830
11037, -663, -1076, -550, 52850, 307580, 7840
11057, -705, -1133, -571, 57050, 322700, -22470
11077, -725, -1179, -582, 71260, 332710, -59850
11097, -739, -1228, -598, 93030, 306390, -74340
11117, -744, -1252, -612, 98700, 256900, -63630
11137, -712, -1184, -578, 81550, 221550, -56560
11157, -652, -1073, -515, 65940, 201530, -67060
11177, -598, -979, -465, 63070, 174930, -80220
11197, -572, -929, -442, 62930, 141400, -85820
11217, -557, -909, -433, 59990, 115570, -92960
11237, -550, -897, -433, 57470, 100870, -105840
11257, -532, -867, -401, 57960, 93100, -119840
11277, -516, -851, -391, 46900, 85330, -122220
11297, -513, -848, -398, 18270, 62720, -100800
11317, -513, -853, -409, -4130, 36400, -75390
11337, -507, -835, -394, -20300, 28000, -69720
11357, -473, -767, -357, -18830, 25620, -78190
11377, -424, -677, -308, -8120, 9520, -79170
11397, -378, -598, -276, -2030, -21560, -61180
11417, -342, -533, -252, -3710, -54320, -30450
11437, -309, -480, -234, -12250, -64680, -6160
11457, -294, -452, -219, -26390, -48580, 7210
11477, -294, -440, -209, -41930, -21140, 18760
11497, -300, -442, -207, -47740, -2450, 33810
11517, -316, -474, -224, -37730, -4410, 53130
11537, -336, -524, -255, -17640, -18900, 71330
11557, -381, -609, -306, 2870, -25480, 79660
11577, -452, -764, -375, 11760, -11550, 81060
11597, -551, -945, -460, 3640, 19250, 82250
11617, -658, -1149, -564, -13440, 46200, 87570
11637, -721, -1282, -624, -21630, 46480, 96880
11657, -734, -1314, -642, -16450, 19250, 111160
11677, -698, -1224, -601, -19880, -20160, 137970
11697, -630, -1095, -539, -30520, -55930, 166250
11717, -563, -974, -485, -27930, -85260, 181230
11737, -521, -902, -450, -9030, -98000, 179130
11757, -520, -896, -441, -490, -85260, 168350
11777, -562, -962, -476, -9800, -56700, 159810
11797, -641, -1129, -565, -24710, -38010, 161910
11817, -755, -1353, -691, -31570, -38010, 173180
11837, -845, -1510, -753, -27370, -35840, 175700
11857, -820, -1484, -731, -18900, -18690, 150920
11877, -733, -1306, -632, 5110, -42490, 136500
11897, -640, -1121, -558, 23310, -104090, 163030
11917, -576, -985, -492, -3780, -128100, 188790
11937, -524, -886, -436, -33880, -106820, 186060
11957, -506, -844, -413, -36260, -80430, 165900
11977, -489, -821, -407, -15610, -75110, 153300
11997, -494, -827, -409, 9660, -73150, 139930
12017, -493, -825, -403, 16590, -46900, 116410
12037, -487, -810, -384, 14700, -10290, 87500
12057, -472, -780, -363, 24780, 4340, 72800
12077, -465, -765, -364, 31850, -7070, 83650
12097, -465, -754, -369, 15120, -19180, 109970
12117, -463, -738, -366, -14280, -12040, 126420
12137, -444, -698, -345, -25830, 9240, 116200
12157, -404, -628, -306, 0, 24570, 82460
12177, -364, -560, -269, 50190, 26040, 43120
12197, -344, -522, -250, 84490, 25550, 19810
12217, -344, -516, -251, 57470, 59920, 23170
12237, -357, -531, -259, 43050, 81410, 24570
12257, -378, -560, -276, 47320, 98420, 12670
12277, -401, -591, -292, 65590, 114240, -14700
12297, -428, -633, -313, 89740, 127680, -49980
12317, -475, -711, -351, 106120, 138460, -82950
12337, -533, -816, -399, 115290, 142730, -111090
12357, -596, -938, -454, 127820, 129290, -131880
12377, -657, -1077, -518, 134190, 93730, -136990
12397, -712, -1192, -564, 111510, 58170, -129640
12417, -760, -1277, -612, 51240, 35420, -119210
12437, -781, -1294, -648, 2590, 840, -117670
12457, -743, -1206, -614, 21980, -50050, -148890
12477, -689, -1095, -552, 64680, -89460, -205100
12497, -653, -1030, -499, 62020, -97020, -255360
12517, -662, -1056, -505, 6160, -96110, -272370
12537, -714, -1146, -567, -60900, -117810, -256340
12557, -750, -1211, -615, -97370, -152600, -246260
12577, -754, -1209, -617, -109690, -171010, -268520
12597, -726, -1158, -585, -117390, -176890, -302610
12617, -685, -1091, -550, -135520, -185290, -321020
12637, -647, -1024, -517, -165970, -196560, -316400
12657, -610, -963, -491, -206220, -204330, -296170
12677, -594, -934, -488, -243180, -211750, -265510
12697, -576, -913, -484, -255360, -226940, -236390
12717, -555, -893, -479, -251370, -230230, -222670
12737, -537, -878, -464, -252420, -207830, -222390
12757, -528, -866, -449, -261660, -175210, -217840
12777, -528, -863, -442, -266980, -163310, -191800
12797, -519, -842, -440, -254590, -184030, -147420
12817, -492, -802, -427, -225890, -216580, -104160
12837, -458, -742, -398, -199500, -229110, -76090
12857, -420, -676, -360, -180530, -214900, -63350
12877, -380, -606, -318, -163870, -187950, -58030
12897, -351, -548, -285, -145320, -161770, -52710
12917, -322, -499, -261, -122220, -142520, -44030
12937, -302, -464, -243, -94150, -129990, -31780
12957, -292, -447, -238, -64120, -118090, -19040
12977, -300, -457, -246, -31990, -102130, -10430
12997, -308, -466, -252, 6300, -80570, -12740
13017, -321, -490, -269, 52990, -54530, -28840
13037, -349, -539, -293, 98630, -22960, -52570
13057, -396, -629, -336, 132020, 15400, -75180
13077, -470, -773, -404, 150220, 52080, -86870
13097, -579, -973, -494, 155400, 79450, -84630
13117, -685, -1181, -595, 149450, 94640, -74270
13137, -760, -1344, -683, 146790, 77980, -53620
13157, -776, -1380, -703, 169400, 14490, -22610
13177, -731, -1294, -682, 186760, -52290, 7140
13197, -663, -1140, -606, 178150, -77840, 10640
13217, -602, -1013, -536, 178710, -62230, -25130
13237, -579, -971, -504, 193970, -50470, -65730
13257, -601, -1030, -527, 205590, -60340, -81340
13277, -683, -1191, -613, 193970, -75880, -73640
13297, -797, -1399, -729, 163800, -83790, -62300
13317, -891, -1572, -822, 143500, -87010, -69510
13337, -882, -1549, -807, 137270, -90650, -97720
13357, -785, -1357, -695, 136430, -104510, -128590
13377, -683, -1167, -600, 134890, -135030, -143150
13397, -600, -1014, -525, 129570, -180040, -135100
13417, -545, -912, -476, 120400, -210140, -125650
13437, -516, -859, -451, 94500, -204540, -124950
13457, -504, -838, -433, 59570, -170170, -133700
13477, -506, -843, -432, 34720, -124950, -151130
13497, -513, -854, -431, 26040, -90860, -166390
13517, -497, -836, -411, 30800, -75950, -170170
13537, -458, -779, -376, 35280, -78260, -155400
13557, -437, -737, -364, 24780, -91490, -116550
13577, -414, -692, -352, 3850, -105420, -64330
13597, -378, -624, -324, -3640, -106190, -29120
13617, -336, -548, -281, 14140, -88200, -24500
13637, -299, -486, -247, 34580, -53410, -34020
13657, -277, -445, -222, 40950, -11060, -35420
13677, -268, -425, -213, 36750, 27090, -17010
13697, -272, -425, -216, 29120, 56000, 18200
13717, -283, -434, -223, 22890, 82810, 56560
13737, -294, -451, -233, 22890, 112630, 86450
13757, -318, -487, -255, 29330, 145950, 107030
13777, -359, -552, -295, 34580, 181790, 125790
13797, -424, -657, -355, 32410, 221340, 144620
13817, -523, -823, -445, 23240, 267820, 157640
13837, -651, -1047, -564, 12180, 319760, 158130
13857, -767, -1272, -665, 10990, 368690, 142590
13877, -838, -1418, -720, 29470, 400470, 117740
13897, -818, -1381, -697, 41580, 404110, 111650
13917, -734, -1213, -616, 20230, 382620, 134540
13937, -659, -1063, -549, 350, 349580, 158620
13957, -625, -981, -510, 22330, 343350, 118790
13977, -642, -999, -518, 42420, 374570, 67130
13997, -706, -1102, -567, 57750, 411740, 10780
14017, -779, -1252, -633, 76930, 430990, -35980
14037, -852, -1408, -692, 81900, 425740, -58450
14057, -879, -1488, -724, 60970, 391230, -49840
14077, -863, -1464, -721, 38850, 323470, -21700
14097, -809, -1360, -682, 44380, 253190, -16030
14117, -742, -1221, -611, 72170, 213150, -51660
14137, -666, -1079, -527, 95060, 206850, -110110
14157, -607, -980, -457, 98000, 201320, -149800
14177, -580, -950, -432, 74480, 178850, -148260
14197, -585, -962, -440, 34720, 140630, -120050
14217, -585, -973, -459, 2310, 98210, -92680
14237, -577, -951, -453, -3430, 56490, -85890
14257, -547, -900, -431, 11970, 25060, -98840
14277, -510, -834, -394, 22820, 9800, -118860
14297, -465, -752, -346, 15470, 7070, -131670
14317, -419, -672, -304, -4690, 1680, -125720
14337, -386, -609, -273, -26740, -16800, -99050
14357, -362, -565, -259, -43610, -42980, -62580
14377, -349, -538, -250, -55790, -64050, -29540
14397, -343, -523, -250, -63140, -73150, -8470
14417, -338, -515, -250, -62510, -72030, -1330
14437, -334, -505, -246, -52290, -64400, -6090
14457, -322, -488, -234, -35840, -55440, -14910
14477, -309, -470, -220, -22050, -50190, -15540
14497, -310, -476, -220, -20160, -50540, 1820
14517, -340, -525, -244, -32970, -53130, 34930
14537, -389, -613, -290, -46690, -59360, 71120
14557, -447, -722, -351, -41860, -75670, 97930
14577, -502, -840, -416, -10150, -103040, 110740
14597, -564, -978, -491, 31850, -127470, 110460
14617, -652, -1139, -580, 47670, -122430, 98980
14637, -741, -1320, -652, 15890, -85330, 84630
14657, -764, -1359, -665, -29610, -60550, 80710
14677, -725, -1271, -625, -29050, -108220, 104370
14697, -661, -1157, -587, 10640, -203350, 145390
14717, -627, -1096, -569, 34580, -260610, 167300
14737, -616, -1085, -569, 33390, -251510, 152460
14757, -644, -1134, -582, 28910, -207480, 110670
14777, -713, -1267, -639, 23170, -168910, 73640
14797, -824, -1463, -739, 14000, -164430, 62930
14817, -904, -1612, -834, 9940, -194670, 70210
14837, -851, -1511, -785, 35980, -251090, 70980
14857, -739, -1295, -665, 73080, -294770, 50400
14877, -658, -1127, -580, 59850, -301630, 30800
14897, -613, -1026, -534, 15820, -290710, 22540
14917, -575, -952, -503, -4480, -285250, 13020
14937, -543, -887, -467, 13160, -289730, -7280
14957, -518, -847, -442, 36610, -285810, -35070
14977, -509, -831, -429, 36260, -267400, -58240
14997, -495, -813, -418, 19390, -242410, -71750
15017, -478, -779, -393, 3360, -219520, -79730
15037, -447, -730, -365, -9660, -199360, -84000
15057, -413, -660, -327, -16870, -187740, -80780
15077, -389, -611, -305, -20720, -183190, -68180
15097, -366, -571, -287, -24010, -181720, -49910
15117, -335, -523, -267, -18760, -177940, -36400
15137, -301, -471, -240, -10220, -159740, -34440
15157, -273, -428, -215, -13370, -121240, -37030
15177, -257, -399, -197, -29610, -72590, -31640
15197, -257, -391, -191, -49700, -26810, -12740
15217, -265, -400, -198, -65380, 9800, 15120
15237, -290, -439, -218, -72590, 39550, 40740
15257, -318, -492, -249, -68320, 67550, 54880
15277, -362, -582, -294, -50330, 98000, 52570
15297, -429, -717, -365, -25760, 133770, 42280
15317, -562, -954, -479, -18690, 186060, 32480
15337, -760, -1312, -652, -49420, 263970, 23450
15357, -931, -1648, -814, -100170, 336630, 15050
15377, -872, -1577, -765, -108220, 333480, 18550
15397, -725, -1279, -618, -45780, 230370, 52290
15417, -616, -1057, -527, -20650, 137480, 105280
15437, -562, -943, -479, -63350, 135450, 122640
15457, -554, -912, -465, -90300, 188510, 91840
15477, -601, -986, -494, -79380, 250810, 34930
15497, -723, -1215, -592, -57400, 311920, -24150
15517, -872, -1520, -722, -47390, 359240, -66430
15537, -972, -1737, -842, -52430, 364490, -71680
15557, -915, -1630, -815, -59430, 297850, -31850
15577, -774, -1349, -669, -53410, 199080, 12040
15597, -666, -1134, -554, -47320, 166460, -2940
15617, -602, -999, -469, -55580, 193270, -54110
15637, -569, -948, -440, -47880, 211190, -95690
15657, -569, -962, -453, -30590, 194390, -105420
15677, -587, -1001, -473, -24710, 165970, -92330
15697, -607, -1050, -502, -34790, 149520, -65730
15717, -617, -1051, -504, -68600, 135660, -62440
15737, -581, -987, -472, -54040, 122150, -73290
15757, -529, -887, -416, -31010, 90370, -72590
15777, -472, -780, -369, -12880, 59570, -66500
15797, -410, -664, -301, -14770, 55930, -64610
15817, -374, -600, -276, -37730, 53620, -46550
15837, -353, -550, -257, -47600, 36050, -12180
15857, -332, -508, -237, -36820, 17150, 13580
15877, -320, -480, -230, -27300, 10500, 28770
15897, -303, -445, -210, -14490, 12740, 31640
15917, -297, -435, -210, 2520, 13650, 32970
15937, -289, -421, -195, 20160, 14980, 33880
15957, -303, -447, -207, 32970, 11830, 41510
15977, -325, -494, -237, 43120, 630, 57400
15997, -346, -541, -261, 60620, -8750, 66780
16017, -379, -611, -294, 69230, -3430, 70070
16037, -435, -719, -342, 58380, 10220, 79170
16057, -514, -873, -423, 44660, 11620, 99610
16077, -608, -1043, -505, 39900, -5460, 124390
16097, -695, -1227, -611, 36890, -27650, 140000
16117, -732, -1308, -651, 35280, -49770, 145740
16137, -733, -1300, -642, 34580, -66500, 145810
16157, -686, -1212, -602, 29050, -88550, 148680
16177, -643, -1134, -555, 38780, -121730, 153440
16197, -643, -1128, -561, 31920, -142940, 161770
16217, -651, -1143, -572, 14490, -149590, 168490
16237, -685, -1209, -608, 12880, -151970, 160440
16257, -729, -1297, -655, 18690, -154700, 144480
16277, -780, -1392, -699, 28560, -160510, 126840
16297, -826, -1473, -744, 21070, -164920, 113190
16317, -812, -1442, -725, 9590, -181230, 104510
16337, -763, -1338, -679, 16870, -221690, 104440
16357, -695, -1204, -615, 20020, -256620, 102620
16377, -634, -1081, -555, 16450, -268590, 88340
16397, -597, -1005, -517, 9520, -265370, 67760
16417, -567, -945, -482, 7980, -257950, 44450
16437, -551, -910, -465, 11340, -253470, 22960
16457, -541, -890, -453, 7490, -247660, 5600
16477, -528, -867, -439, -770, -237510, -10780
16497, -505, -824, -418, -7560, -229460, -24080
16517, -475, -760, -380, -13020, -221270, -36260
16537, -438, -686, -340, -19390, -212030, -46340
16557, -402, -620, -308, -22750, -210070, -48230
16577, -367, -555, -278, -24640, -211190, -43260
16597, -326, -494, -247, -30240, -204820, -36960
16617, -299, -452, -229, -41020, -188020, -29610
16637, -285, -422, -215, -56490, -157640, -24080
16657, -275, -407, -204, -74410, -115710, -22400
16677, -274, -403, -199, -87010, -73010, -22400
16697, -282, -420, -207, -88200, -39410, -21560
16717, -294, -453, -223, -82530, -10570, -20860
16737, -322, -508, -250, -77770, 23590, -23030
16757, -366, -602, -295, -78960, 65800, -24990
16777, -447, -749, -365, -88480, 115010, -25830
16797, -559, -954, -461, -103950, 167230, -27160
16817, -698, -1227, -590, -115150, 204610, -26530
16837, -782, -1393, -671, -112000, 202510, -12950
16857, -760, -1355, -662, -101640, 163660, 16030
16877, -671, -1187, -586, -98140, 115080, 48300
16897, -592, -1031, -507, -97720, 92610, 62720
16917, -552, -954, -470, -103180, 112910, 50330
16937, -559, -962, -469, -109900, 151480, 29610
16957, -623, -1074, -527, -114450, 194040, 9450
16977, -722, -1261, -619, -119140, 233030, -8680
16997, -823, -1454, -709, -114520, 255500, -22470
17017, -874, -1560, -766, -104580, 250670, -25270
17037, -832, -1480, -730, -99050, 215040, -11410
17057, -748, -1321, -652, -89810, 170030, 1050
17077, -670, -1170, -570, -85610, 153090, -7490
17097, -619, -1064, -508, -92050, 166740, -29960
17117, -596, -1021, -487, -97160, 180880, -46760
17137, -596, -1023, -489, -96390, 178500, -48860
17157, -613, -1054, -507, -88340, 164430, -43190
17177, -616, -1063, -513, -81200, 151620, -39480
17197, -602, -1032, -499, -77070, 142870, -40110
17217, -574, -981, -473, -69160, 130200, -40740
17237, -537, -919, -438, -61740, 117740, -41370
17257, -495, -829, -392, -57610, 110040, -42210
17277, -450, -742, -348, -49910, 99190, -39480
17297, -414, -670, -316, -42700, 81620, -26810
17317, -385, -614, -291, -37660, 59430, -5530
17337, -365, -572, -276, -32970, 43260, 14560
17357, -349, -537, -262, -28350, 40250, 25200
17377, -327, -495, -238, -19180, 45780, 26950
17397, -311, -466, -222, 350, 47950, 26180
17417, -303, -448, -216, 23520, 42700, 30310
17437, -302, -449, -216, 39480, 37310, 40110
17457, -316, -471, -229, 52990, 34650, 67620
17477, -325, -493, -235, 62230, 32410, 80780
17497, -351, -543, -263, 76090, 23730, 94850
17517, -388, -620, -301, 89810, 14070, 106820
17537, -446, -740, -362, 99540, 11480, 113050
17557, -542, -927, -458, 96530, 16660, 118090
17577, -667, -1173, -578, 83790, 25550, 120750
17597, -793, -1419, -697, 67690, 22330, 123760
17617, -836, -1506, -738, 55580, -12810, 136920
17637, -757, -1343, -655, 48230, -72870, 161700
17657, -654, -1139, -567, 43750, -129150, 184520
17677, -564, -972, -483, 50050, -158620, 186550
17697, -534, -922, -460, 55650, -159040, 172060
17717, -560, -972, -484, 46340, -142520, 156800
17737, -634, -1108, -551, 32270, -123410, 142800
17757, -763, -1361, -693, 22120, -118300, 131740
17777, -908, -1635, -825, 24080, -119770, 108850
17797, -955, -1739, -870, 33740, -132790, 77000
17817, -862, -1531, -757, 38710, -195020, 80500
17837, -717, -1243, -632, 26880, -263480, 101500
17857, -610, -1023, -526, 12180, -304220, 110250
17877, -537, -884, -456, 5460, -298690, 87640
17897, -509, -822, -422, 1190, -279230, 56350
17917, -496, -805, -418, 3010, -263060, 29540
17937, -497, -800, -409, 4340, -243530, -980
17957, -500, -812, -411, -4830, -215810, -31430
17977, -508, -813, -401, -15470, -194600, -54810
17997, -499, -792, -386, -20090, -194320, -64050
18017, -474, -744, -367, -18410, -217840, -57750
18037, -434, -676, -342, -15960, -245490, -44450
18057, -393, -604, -306, -28210, -246190, -39480
18077, -360, -543, -275, -52850, -221340, -41860
18097, -330, -487, -243, -71330, -192290, -45290
18117, -299, -435, -217, -77910, -169820, -46480
18137, -281, -405, -204, -82600, -149940, -43120
18157, -268, -392, -199, -89250, -126140, -37730
18177, -273, -404, -203, -96600, -95900, -32480
18197, -292, -443, -219, -102970, -60270, -29050
18217, -317, -497, -243, -105980, -22190, -28980
18237, -349, -566, -276, -101150, 13230, -31010
18257, -395, -664, -318, -96180, 48790, -30380
18277, -487, -831, -397, -112420, 93660, -23100
18297, -618, -1074, -522, -147840, 136990, -7630
18317, -736, -1307, -645, -157290, 142800, 12110
18337, -752, -1363, -667, -116130, 103740, 28630
18357, -681, -1225, -598, -79100, 63910, 44100
18377, -624, -1099, -544, -104160, 62930, 66920
18397, -588, -1028, -516, -149100, 84350, 87150
18417, -582, -1023, -518, -147910, 98840, 90650
18437, -628, -1109, -559, -123690, 125090, 75040
18457, -713, -1262, -628, -121170, 180530, 48650
18477, -795, -1416, -697, -131320, 231770, 28560
18497, -824, -1483, -730, -122640, 232050, 30660
18517, -796, -1427, -709, -101080, 192500, 51310
18537, -749, -1325, -660, -103180, 170730, 66640
18557, -695, -1216, -605, -125370, 181300, 63980
18577, -652, -1133, -561, -121520, 188440, 48720
18597, -620, -1077, -529, -91980, 189910, 26250
18617, -614, -1059, -512, -75530, 203490, 4130
18637, -626, -1074, -514, -80360, 219660, -4620
18657, -637, -1096, -535, -87010, 212800, 6090
18677, -629, -1084, -537, -81900, 184450, 22820
18697, -603, -1031, -508, -68810, 165620, 22820
18717, -562, -945, -455, -57260, 169960, 3290
18737, -512, -844, -392, -43540, 173180, -15400
18757, -450, -728, -327, -28560, 158550, -19110
18777, -424, -681, -323, -33110, 141890, -10150
18797, -402, -623, -297, -45570, 114660, 17570
18817, -368, -568, -276, -18760, 73080, 41440
18837, -344, -525, -255, 7140, 58800, 37030
18857, -330, -495, -231, 10500, 77840, 19040
18877, -314, -466, -217, 14420, 88970, 15960
18897, -309, -456, -214, 31920, 75530, 29960
18917, -317, -469, -221, 46760, 56560, 50820
18937, -338, -511, -245, 50960, 50470, 64470
18957, -349, -536, -260, 53620, 49280, 70490
18977, -371, -573, -274, 70700, 40180, 73570
18997, -404, -644, -308, 91280, 27440, 79870
19017, -441, -727, -353, 100590, 18970, 85540
19037, -498, -839, -405, 105770, 7070, 95340
19057, -561, -952, -454, 97860, 0, 110250
19077, -625, -1081, -526, 69300, 3500, 123480
19097, -696, -1215, -611, 52570, -20370, 145740
19117, -713, -1273, -646, 59290, -66710, 167860
19137, -701, -1240, -606, 76650, -93590, 161070
19157, -683, -1199, -580, 85120, -92890, 136360
19177, -685, -1199, -595, 55860, -100380, 136150
19197, -708, -1245, -634, 23800, -167930, 170730
19217, -732, -1294, -652, 29750, -166950, 143570
19237, -751, -1328, -661, 41580, -168210, 110180
19257, -770, -1363, -687, 40320, -193340, 103040
19277, -781, -1379, -703, 27720, -218680, 101500
19297, -774, -1356, -690, 11340, -226170, 86170
19317, -746, -1281, -645, -1750, -233310, 65800
19337, -693, -1177, -604, 6930, -271390, 58170
19357, -632, -1058, -550, 24570, -306740, 45220
19377, -577, -952, -495, 27510, -305830, 14140
19397, -544, -884, -452, 15470, -290080, -14980
19417, -528, -845, -429, -3500, -281330, -27790
19437, -518, -823, -424, -21000, -284200, -28840
19457, -511, -806, -421, -33600, -282870, -34860
19477, -496, -780, -406, -43120, -262990, -58520
19497, -471, -733, -375, -44170, -239470, -89810
19517, -435, -665, -334, -34160, -231980, -110600
19537, -396, -597, -297, -30730, -237510, -111580
19557, -362, -539, -271, -46060, -240870, -95690
19577, -337, -497, -253, -69930, -236950, -72450
19597, -321, -468, -243, -91000, -223580, -51870
19617, -306, -451, -234, -105280, -200200, -40320
19637, -292, -432, -224, -108500, -171990, -37240
19657, -274, -416, -212, -103600, -141750, -36750
19677, -279, -430, -213, -107310, -105280, -30870
19697, -306, -483, -240, -126280, -61250, -18620
19717, -343, -554, -272, -138880, -21420, -6790
19737, -388, -651, -316, -131110, 6510, 1330
19757, -452, -784, -378, -119700, 31360, 8470
19777, -554, -979, -476, -120190, 56560, 21700
19797, -681, -1225, -602, -128240, 67760, 48160
19817, -779, -1414, -713, -135170, 59920, 80990
19837, -743, -1363, -686, -127260, 43820, 100800
19857, -645, -1167, -567, -105000, 32410, 108360
19877, -568, -1007, -503, -109270, 39130, 124460
19897, -545, -960, -487, -121240, 53340, 146370
19917, -570, -1018, -527, -114310, 71820, 160160
19937, -643, -1149, -595, -108780, 116410, 154560
19957, -747, -1332, -679, -111580, 183050, 133560
19977, -842, -1503, -761, -128170, 242060, 117950
19997, -858, -1547, -791, -128730, 245000, 125720
20017, -808, -1445, -735, -85680, 196280, 147000
20037, -734, -1303, -667, -57750, 175420, 153930
20057, -684, -1182, -604, -76020, 202230, 146650
20077, -637, -1082, -548, -98140, 242130, 130340
20097, -603, -1010, -513, -87430, 261940, 109060
20117, -598, -1000, -499, -52640, 265720, 88410
20137, -616, -1035, -513, -27580, 268870, 74480
20157, -636, -1065, -530, -21770, 267960, 73920
20177, -618, -1031, -516, -20930, 257740, 77630
20197, -577, -954, -479, -12180, 247170, 70210
20217, -532, -866, -431, 3850, 242200, 52780
20237, -483, -770, -371, 19530, 241290, 35910
20257, -439, -684, -324, 29120, 234290, 31010
20277, -399, -611, -290, 36050, 209020, 45990
20297, -366, -553, -266, 47950, 172690, 69930
20317, -344, -505, -253, 62930, 145740, 86520
20337, -330, -473, -241, 75460, 138810, 88900
20357, -319, -449, -226, 84420, 149520, 80360
20377, -309, -427, -208, 93240, 164570, 69090
20397, -304, -420, -198, 104230, 168070, 66570
20417, -311, -437, -210, 112770, 154420, 78960
20437, -324, -470, -226, 115360, 133840, 100240
20457, -345, -512, -246, 111930, 119840, 120120
20477, -372, -563, -269, 102270, 115500, 137480
20497, -413, -643, -308, 91000, 110880, 156590
20517, -480, -770, -374, 81690, 101080, 177590
20537, -558, -927, -458, 70420, 96320, 191310
20557, -649, -1105, -545, 51380, 102550, 193620
20577, -718, -1253, -608, 34720, 110180, 187320
20597, -771, -1359, -652, 28770, 102760, 181650
20617, -794, -1400, -682, 14490, 72310, 194460
20637, -775, -1356, -667, -18970, 35420, 219520
20657, -712, -1245, -607, -54950, 15260, 227850
20677, -655, -1123, -529, -57120, -6090, 217630
20697, -650, -1131, -562, -44030, -31010, 207480
20717, -695, -1210, -613, -73920, -46270, 219800
20737, -724, -1284, -624, -76860, -29610, 194460
20757, -762, -1351, -650, -70840, 8890, 140280
20777, -798, -1375, -669, -79800, -4270, 136990
20797, -780, -1362, -704, -105420, -53410, 174370
20817, -695, -1197, -595, -132090, -104230, 200270
20837, -602, -1033, -493, -97160, -119420, 164920
20857, -561, -934, -442, -76930, -107170, 113890
20877, -540, -878, -426, -86730, -116480, 109550
20897, -536, -869, -433, -104370, -139790, 125440
20917, -522, -845, -421, -123830, -147210, 127680
20937, -503, -809, -392, -109900, -150080, 104300
20957, -482, -767, -370, -76930, -144340, 42420
20977, -454, -714, -344, -66850, -156520, 31220
20997, -427, -666, -322, -62860, -163590, 22050
21017, -410, -634, -308, -77700, -154630, 13440
21037, -400, -610, -292, -88410, -146650, 7490
21057, -390, -582, -276, -89110, -146160, 3710
21077, -385, -571, -280, -89740, -149660, -490
21097, -374, -557, -278, -83860, -145670, -16660
21117, -358, -529, -259, -72870, -125790, -47530
21137, -349, -513, -247, -70630, -93380, -80710
21157, -355, -520, -242, -77700, -62720, -102970
21177, -366, -538, -244, -81200, -45220, -115570
21197, -383, -573, -261, -81900, -39480, -121870
21217, -410, -635, -298, -88620, -36050, -123480
21237, -449, -713, -340, -100380, -19810, -129710
21257, -505, -816, -381, -115220, 10080, -143710
21277, -575, -946, -446, -127540, 32690, -156800
21297, -637, -1067, -502, -127960, 32760, -163520
21317, -674, -1154, -545, -128240, 21700, -165760
21337, -693, -1187, -563, -144130, 9940, -160020
21357, -672, -1149, -545, -161770, -7980, -146930
21377, -634, -1088, -528, -171080, -31850, -132510
21397, -607, -1042, -507, -178920, -40320, -125370
21417, -619, -1077, -524, -196420, -18200, -131460
21437, -680, -1188, -578, -218540, 19110, -143010
21457, -751, -1330, -651, -219800, 35700, -146930
21477, -813, -1455, -715, -210210, 28980, -141680
21497, -824, -1479, -728, -207060, 10220, -128380
21517, -781, -1393, -690, -204960, -19670, -107310
21537, -706, -1259, -631, -205450, -49280, -83510
21557, -644, -1141, -573, -213850, -52430, -70630
21577, -605, -1067, -537, -227850, -30940, -68880
21597, -575, -1009, -500, -225190, -12880, -68180
21617, -549, -962, -475, -199710, -14420, -60830
21637, -530, -929, -459, -173320, -24570, -44590
21657, -523, -909, -452, -159250, -28350, -24430
21677, -513, -890, -446, -156170, -21420, -6230
21697, -501, -861, -432, -152600, -7000, 3780
21717, -477, -815, -403, -139720, 7700, 5600
21737, -448, -756, -371, -121800, 17010, 7560
21757, -425, -705, -345, -104160, 19460, 15540
21777, -404, -665, -329, -84490, 16100, 27650
21797, -388, -630, -313, -59360, 11480, 36890
21817, -366, -588, -293, -31290, 11830, 39760
21837, -340, -538, -268, -5390, 19950, 38360
21857, -325, -507, -254, 15050, 32340, 38710
21877, -322, -492, -250, 28910, 46900, 43470
21897, -323, -486, -249, 41720, 61810, 48650
21917, -327, -480, -247, 62300, 72030, 50260
21937, -329, -489, -254, 93940, 72660, 49070
21957, -345, -520, -272, 130550, 66570, 47250
21977, -374, -580, -302, 163170, 62720, 45080
21997, -420, -670, -350, 185430, 64820, 44240
22017, -484, -793, -407, 196000, 69790, 47180
22037, -568, -953, -483, 198380, 72590, 53200
22057, -679, -1185, -598, 193200, 69370, 61180
22077, -770, -1368, -686, 180460, 57260, 69930
22097, -802, -1428, -707, 164710, 32620, 80010
22117, -754, -1334, -674, 147000, -12250, 98280
22137, -671, -1180, -603, 144340, -78750, 119630
22157, -610, -1066, -551, 160370, -129500, 119700
22177, -586, -1015, -521, 168560, -142940, 98630
22197, -601, -1043, -522, 158760, -130620, 70980
22217, -667, -1161, -583, 133140, -119000, 54530
22237, -755, -1329, -680, 108990, -129850, 54110
22257, -841, -1487, -766, 98560, -152740, 48580
22277, -842, -1488, -763, 91770, -168770, 28420
22297, -763, -1325, -675, 92260, -191030, 1610
22317, -670, -1136, -585, 93870, -230160, -12110
22337, -596, -987, -512, 83720, -270060, -14420
22357, -548, -896, -469, 64890, -286860, -21700
22377, -524, -842, -440, 46130, -285530, -35770
22397, -510, -819, -428, 35770, -275030, -55860
22417, -501, -805, -419, 27230, -257950, -79800
22437, -493, -792, -403, 12880, -232960, -104440
22457, -485, -778, -390, -6300, -209090, -121100
22477, -477, -762, -383, -26040, -197190, -122920
22497, -454, -721, -367, -36120, -202020, -113470
22517, -423, -666, -340, -32410, -213850, -104440
22537, -383, -600, -304, -27020, -219100, -99050
22557, -348, -541, -273, -31150, -210700, -93590
22577, -323, -497, -246, -46900, -190190, -83720
22597, -306, -468, -235, -68180, -165480, -67340
22617, -295, -452, -227, -85400, -143150, -46620
22637, -288, -441, -219, -91700, -123550, -28210
22657, -285, -441, -217, -88620, -102970, -15050
22677, -293, -461, -227, -84420, -79380, -4410
22697, -312, -499, -243, -75810, -35980, 29050
22717, -353, -589, -289, -72660, -13580, 49490
22737, -423, -726, -363, -76580, 17640, 65520
22757, -522, -921, -462, -85120, 59360, 73080
22777, -648, -1168, -578, -97090, 101710, 77770
22797, -781, -1413, -701, -117320, 124180, 93380
22817, -807, -1480, -744, -114030, 97020, 122990
22837, -713, -1302, -651, -64120, 33460, 155680
22857, -594, -1084, -544, -31080, 5250, 178360
22877, -537, -949, -481, -53830, 41720, 190610
22897, -533, -924, -480, -99190, 106680, 196980
22917, -581, -1005, -537, -119560, 163940, 195020
22937, -681, -1202, -630, -104090, 207480, 178150
22957, -802, -1431, -734, -77210, 245910, 154350
22977, -886, -1590, -807, -64750, 265230, 147280
22997, -858, -1533, -787, -59360, 243670, 167300
23017, -752, -1323, -686, -43540, 212520, 182280
23037, -676, -1159, -597, -43680, 228200, 169750
23057, -633, -1059, -543, -64120, 276430, 143570
23077, -610, -1004, -508, -62650, 300370, 124950
23097, -598, -990, -502, -34160, 289730, 117040
23117, -599, -989, -506, -3010, 278600, 106750
23137, -609, -999, -506, 10780, 287980, 88340
23157, -610, -992, -495, 6930, 306180, 69860
23177, -585, -952, -474, 3710, 305760, 61250
23197, -572, -923, -457, 7770, 292530, 55510
23217, -532, -851, -418, 16100, 272720, 49560
23237, -469, -747, -367, 57890, 228340, 48720
23257, -426, -661, -322, 95060, 188510, 54810
23277, -396, -600, -292, 83440, 188930, 59990
23297, -380, -564, -274, 56630, 200130, 65380
23317, -358, -518, -251, 53480, 192150, 75250
23337, -336, -477, -228, 69860, 170730, 82670
23357, -308, -436, -209, 87780, 151970, 85680
23377, -296, -412, -201, 105140, 132790, 90510
23397, -290, -410, -204, 119840, 116130, 99890
23417, -305, -434, -214, 123130, 113330, 109270
23437, -325, -473, -227, 114730, 123760, 117810
23457, -361, -543, -258, 103110, 130550, 132090
23477, -423, -664, -324, 91630, 123270, 156450
23497, -506, -830, -412, 73920, 119910, 178990
23517, -611, -1018, -505, 42000, 141610, 183890
23537, -679, -1153, -565, 5530, 171850, 173670
23557, -692, -1194, -566, -490, 163730, 164150
23577, -673, -1176, -557, 18970, 108920, 175350
23597, -679, -1172, -573, 15400, 44100, 212380
23617, -680, -1176, -587, -25760, 20580, 240660
23637, -679, -1178, -582, -66990, 35770, 232540
23657, -693, -1212, -595, -76230, 45570, 212450
23677, -732, -1284, -635, -72030, 38010, 202510
23697, -776, -1370, -680, -84840, 37660, 193480
23717, -779, -1379, -671, -100450, 41720, 177100
23737, -741, -1306, -634, -94010, 19880, 167510
23757, -703, -1224, -607, -88340, -26320, 185150
23777, -682, -1172, -587, -115360, -42560, 197820
23797, -663, -1139, -563, -149310, -22960, 181020
23817, -643, -1099, -528, -143290, -14350, 147910
23837, -629, -1073, -517, -110460, -32620, 121590
23857, -626, -1059, -514, -94710, -61250, 112560
23877, -614, -1033, -499, -106120, -73780, 107030
23897, -594, -982, -472, -124390, -78610, 96250
23917, -557, -907, -439, -126420, -101430, 90580
23937, -517, -820, -399, -119140, -133490, 88060
23957, -473, -730, -356, -119490, -149940, 76790
23977, -429, -646, -311, -121030, -154980, 56560
23997, -393, -572, -274, -115780, -158830, 32830
24017, -361, -508, -244, -107170, -168770, 13930
24037, -342, -471, -231, -100870, -183470, 3920
24057, -330, -450, -224, -102550, -194250, -420
24077, -325, -443, -225, -112350, -191730, -8120
24097, -323, -439, -223, -123550, -173460, -28140
24117, -332, -450, -224, -125720, -147070, -60480
24137, -342, -469, -228, -118020, -122360, -97790
24157, -360, -498, -239, -105840, -104510, -132860
24177, -387, -553, -261, -95550, -93520, -161560
24197, -429, -639, -305, -92960, -84140, -182840
24217, -488, -757, -355, -101500, -67760, -201390
24237, -576, -934, -436, -119280, -44030, -218330
24257, -659, -1096, -513, -139860, -30450, -224840
24277, -710, -1196, -575, -154490, -45150, -213360
24297, -705, -1191, -588, -170870, -82110, -188230
24317, -653, -1093, -542, -194880, -113680, -166880
24337, -602, -1004, -492, -214200, -120750, -165760
24357, -571, -959, -470, -221200, -114170, -175560
24377, -579, -994, -488, -224210, -106960, -177170
24397, -635, -1110, -552, -241360, -91560, -166600
24417, -712, -1256, -634, -272440, -63910, -150220
24437, -787, -1404, -705, -291760, -39690, -136570
24457, -820, -1484, -754, -252280, -64400, -103600
24477, -785, -1428, -727, -234570, -83790, -83860
24497, -714, -1298, -662, -243250, -79940, -63210
24517, -649, -1169, -597, -256130, -66990, -41230
24537, -611, -1091, -558, -256690, -57680, -14770
24557, -598, -1062, -547, -243250, -52360, 10780
24577, -590, -1056, -543, -217630, -41090, 22330
24597, -583, -1046, -531, -187040, -20160, 20650
24617, -574, -1026, -514, -161490, 2520, 18480
24637, -568, -1007, -503, -148820, 17360, 29540
24657, -556, -978, -492, -144340, 22540, 51100
24677, -526, -910, -459, -130760, 23730, 67130
24697, -488, -835, -419, -104090, 26110, 71750
24717, -447, -754, -378, -74830, 32760, 70210
24737, -412, -682, -339, -51030, 42420, 69580
24757, -379, -613, -306, -33250, 52990, 72870
24777, -355, -560, -282, -16520, 62860, 77770
24797, -336, -520, -266, 2450, 73220, 80990
24817, -323, -488, -251, 22960, 86520, 80640
24837, -313, -464, -238, 45080, 100380, 78470
24857, -307, -449, -232, 70000, 109480, 78190
24877, -301, -427, -225, 99400, 111860, 79380
24897, -298, -422, -222, 132160, 107590, 81830
24917, -308, -434, -236, 162050, 102480, 84630
24937, -326, -472, -259, 186130, 105070, 82670
24957, -360, -534, -294, 206080, 115500, 76300
24977, -407, -626, -337, 223160, 129780, 68390
24997, -483, -776, -402, 232330, 143430, 65800
25017, -595, -1003, -498, 220080, 155050, 74830
25037, -749, -1303, -640, 182280, 151130, 100870
25057, -860, -1529, -771, 141890, 107660, 143430
25077, -838, -1502, -768, 145110, 28210, 174300
25097, -736, -1311, -666, 172480, -38150, 175070
25117, -651, -1131, -557, 167720, -59710, 159600
25137, -605, -1034, -493, 145040, -70980, 146650
25157, -576, -1024, -532, 132790, -108920, 145950
25177, -616, -1075, -557, 133560, -158410, 166320
25197, -705, -1230, -630, 104230, -109130, 135940
25217, -777, -1379, -676, 58240, -45360, 75180
25237, -850, -1525, -760, 75320, -78470, 56000
25257, -847, -1507, -779, 100940, -188160, 94150
25277, -736, -1288, -660, 93100, -251720, 112980
25297, -641, -1100, -557, 54390, -229180, 70910
25317, -574, -959, -483, 27930, -222110, 46130
25337, -543, -885, -454, 44240, -262500, 48300
25357, -528, -870, -457, 39970, -276080, 39130
25377, -541, -881, -458, 21350, -251720, 5040
25397, -544, -882, -444, 17780, -220430, -37170
25417, -540, -877, -436, 22120, -208040, -69020
25437, -520, -843, -416, 20160, -218330, -77420
25457, -508, -820, -412, -3990, -228760, -68530
25477, -491, -778, -394, -51940, -220710, -56000
25497, -457, -702, -359, -70700, -214760, -57190
25517, -399, -600, -304, -46620, -226240, -70910
25537, -346, -515, -262, -22050, -236880, -83230
25557, -299, -440, -224, -28350, -229390, -82670
25577, -277, -408, -211, -58030, -203770, -69090
25597, -275, -400, -207, -97370, -168560, -46900
25617, -273, -402, -205, -128170, -131810, -27720
25637, -272, -404, -204, -135310, -101430, -17920
25657, -280, -425, -215, -123060, -79380, -13580
25677, -301, -474, -236, -110040, -55440, -10640
25697, -348, -565, -279, -107450, -22120, -7770
25717, -415, -708, -349, -109200, 15820, -3220
25737, -524, -927, -459, -110880, 53900, 1680
25757, -683, -1226, -601, -122640, 96180, 7350
25777, -821, -1501, -734, -145810, 133280, 16030
25797, -793, -1449, -713, -153720, 122780, 40600
25817, -662, -1206, -600, -124320, 48720, 88830
25837, -562, -1006, -508, -86940, -19810, 133280
25857, -509, -904, -466, -89460, -10290, 148120
25877, -513, -898, -458, -121310, 61460, 136570
25897, -568, -999, -510, -140210, 135450, 121170
25917, -679, -1198, -610, -139160, 187600, 111370
25937, -813, -1462, -740, -126700, 222250, 104300
25957, -929, -1677, -846, -111650, 238630, 103460
25977, -898, -1632, -834, -101150, 227710, 116410
25997, -760, -1352, -688, -76650, 184590, 134330
26017, -650, -1130, -577, -67620, 176330, 131880
26037, -585, -987, -489, -96740, 217980, 110250
26057, -553, -921, -457, -109130, 250530, 93940
26077, -554, -927, -464, -89180, 245000, 91840
26097, -578, -971, -498, -57820, 225820, 95200
26117, -611, -1028, -518, -35070, 225960, 85890
26137, -638, -1066, -527, -29680, 253890, 60410
26157, -628, -1054, -516, -26460, 274120, 35700
26177, -580, -968, -469, -10710, 259700, 27090
26197, -516, -852, -405, 15190, 192220, 43540
26217, -450, -721, -345, 16870, 170660, 54180
26237, -403, -625, -299, 21140, 152670, 65030
26257, -368, -558, -269, 26880, 137060, 76230
26277, -342, -502, -250, 36330, 128730, 79730
26297, -319, -458, -226, 50400, 129430, 73640
26317, -301, -422, -210, 66220, 133070, 64820
26337, -291, -402, -195, 82180, 132510, 61460
26357, -283, -389, -186, 96600, 124950, 67200
26377, -283, -390, -185, 103670, 113260, 83020
26397, -300, -422, -202, 99890, 101570, 106260
26417, -337, -488, -243, 91280, 93940, 127750
26437, -383, -588, -289, 86450, 93030, 139160
26457, -445, -712, -350, 85400, 99190, 140350
26477, -525, -865, -420, 81970, 108220, 136920
26497, -618, -1052, -505, 71260, 107870, 138180
26517, -708, -1247, -604, 52290, 87710, 151830
26537, -783, -1385, -684, 25130, 59290, 173320
26557, -761, -1330, -641, 490, 35210, 184100
26577, -681, -1177, -560, -9870, -4060, 191660
26597, -613, -1055, -509, -10430, -58800, 209090
26617, -582, -1000, -491, -12110, -94500, 221340
26637, -598, -1027, -510, -20020, -87780, 211680
26657, -661, -1159, -580, -38710, -53060, 182280
26677, -729, -1288, -617, -42770, -25550, 147770
26697, -820, -1456, -702, -47530, -31990, 137690
26717, -887, -1571, -783, -65940, -85120, 165970
26737, -836, -1486, -751, -68460, -142660, 181090
26757, -726, -1268, -631, -56280, -173460, 162330
26777, -620, -1058, -511, -47320, -179620, 130970
26797, -570, -946, -458, -62930, -186270, 119700
26817, -549, -899, -444, -80570, -201740, 125650
26837, -550, -896, -444, -79940, -213990, 120540
26857, -560, -926, -463, -68250, -216020, 97440
26877, -564, -934, -462, -51240, -211540, 62230
26897, -563, -931, -456, -43820, -199010, 26110
26917, -551, -896, -436, -53270, -190750, 2030
26937, -516, -818, -394, -57820, -198170, -10010
26957, -475, -734, -353, -61250, -216370, -14070
26977, -435, -653, -322, -64890, -243110, -7630
26997, -396, -581, -289, -65170, -268590, 1330
27017, -364, -526, -272, -71190, -273700, 1540
27037, -335, -475, -250, -84350, -252770, -12530
27057, -303, -429, -224, -95550, -213150, -38150
27077, -285, -399, -202, -105280, -167720, -63280
27097, -285, -397, -193, -117460, -124600, -80010
27117, -296, -419, -197, -128240, -90650, -88060
27137, -315, -458, -215, -131110, -70700, -90090
27157, -340, -519, -252, -126210, -57610, -92610
27177, -383, -608, -294, -123340, -36540, -100240
27197, -447, -740, -349, -129010, 2520, -112630
27217, -540, -919, -428, -141050, 48510, -123550
27237, -647, -1130, -527, -153230, 76230, -121870
27257, -725, -1294, -620, -163100, 66220, -99330
27277, -729, -1299, -635, -168700, 21770, -58870
27297, -650, -1151, -571, -173320, -20370, -22400
27317, -575, -1012, -496, -173810, -31990, -13020
27337, -529, -933, -457, -167580, -19810, -18270
27357, -530, -937, -462, -172900, 5390, -18480
27377, -581, -1030, -509, -194180, 45920, -13090
27397, -665, -1186, -584, -211750, 88900, -10640
27417, -759, -1374, -678, -204750, 113330, -10500
27437, -834, -1523, -754, -175350, 104790, -3010
27457, -838, -1534, -771, -152950, 81970, 14280
27477, -758, -1379, -687, -157010, 76020, 24640
27497, -671, -1203, -591, -164080, 84280, 23030
27517, -608, -1073, -528, -165480, 88200, 27230
27537, -578, -1012, -504, -165690, 86520, 40950
27557, -567, -986, -494, -157920, 87220, 50820
27577, -561, -974, -485, -136010, 94710, 48020
27597, -564, -980, -482, -107660, 109200, 34090
27617, -569, -989, -483, -87920, 125860, 22540
27637, -567, -977, -482, -84350, 138600, 21280
27657, -547, -910, -427, -84210, 135940, 30170
27677, -506, -851, -412, -87290, 131950, 33670
27697, -480, -791, -383, -89810, 119630, 37380
27717, -434, -713, -357, -52290, 80290, 51170
27737, -380, -602, -287, -2520, 46480, 53060
27757, -344, -540, -261, 22680, 56350, 36190
27777, -329, -503, -241, 14280, 80640, 29680
27797, -323, -479, -227, -1120, 94290, 45570
27817, -324, -475, -232, -210, 89390, 68530
27837, -325, -475, -237, 14980, 77490, 86660
27857, -325, -482, -252, 44520, 63980, 89180
27877, -329, -483, -251, 83160, 57190, 76510
27897, -336, -501, -247, 117040, 67620, 53270
27917, -367, -556, -264, 130760, 86170, 37660
27937, -406, -639, -305, 127680, 90860, 68600
27957, -472, -775, -377, 139090, 33670, 95270
27977, -541, -927, -462, 146370, 4970, 115080
27997, -624, -1088, -544, 140000, -3360, 126490
28017, -703, -1228, -603, 108430, 10080, 126560
28037, -752, -1322, -662, 67270, 11970, 124740
28057, -729, -1290, -649, 79310, -35700, 126910
28077, -670, -1181, -588, 119000, -92050, 123760
28097, -622, -1087, -531, 121940, -123410, 121730
28117, -609, -1060, -523, 94220, -144270, 133560
28137, -647, -1129, -578, 60340, -158480, 144900
28157, -697, -1223, -633, 55720, -158480, 126840
28177, -745, -1314, -660, 68040, -142870, 77420
28197, -777, -1371, -673, 61810, -137480, 39900
28217, -782, -1370, -690, 50050, -183260, 45290
28237, -738, -1280, -653, 50960, -248570, 61460
28257, -666, -1139, -581, 45570, -276920, 49420
28277, -616, -1025, -523, 26460, -276570, 26320
28297, -579, -945, -487, 7630, -276010, 6650
28317, -552, -891, -467, 6090, -281820, -15260
28337, -534, -853, -444, 10990, -279230, -46130
28357, -520, -831, -427, 4410, -262360, -79240
28377, -522, -823, -413, -10220, -250530, -98490
28397, -514, -811, -413, -25130, -255850, -100800
28417, -494, -774, -398, -33810, -267470, -99820
28437, -463, -721, -372, -45010, -266420, -104230
28457, -431, -660, -340, -62650, -251930, -110880
28477, -405, -606, -310, -77420, -237580, -113680
28497, -372, -551, -283, -83650, -231980, -110040
28517, -341, -502, -261, -84840, -231210, -101570
28537, -318, -469, -245, -90930, -222600, -90370
28557, -305, -458, -236, -106610, -199220, -78400
28577, -306, -464, -238, -124110, -168350, -65170
28597, -311, -483, -242, -130410, -140770, -51800
28617, -325, -516, -257, -125930, -118300, -39340
28637, -347, -566, -277, -121310, -95970, -26320
28657, -383, -645, -318, -121240, -72590, -9520
28677, -446, -766, -380, -127260, -48440, 11970
28697, -525, -920, -461, -133350, -26040, 32900
28717, -587, -1046, -521, -122640, -13160, 45990
28737, -615, -1116, -548, -94500, -13720, 54950
28757, -626, -1129, -555, -80500, -21350, 76650
28777, -610, -1103, -553, -87990, -30100, 113260
28797, -590, -1060, -538, -94010, -32690, 144200
28817, -566, -1017, -515, -89530, -16310, 154280
28837, -569, -1018, -512, -79800, 12180, 154630
28857, -608, -1090, -553, -81130, 42980, 162330
28877, -667, -1199, -617, -88830, 71120, 175280
28897, -735, -1329, -686, -79870, 91630, 181860
28917, -783, -1421, -726, -64330, 112070, 179690
28937, -784, -1414, -720, -58380, 131460, 177730
28957, -737, -1318, -672, -66640, 141470, 187040
28977, -675, -1193, -615, -71470, 140980, 199570
28997, -628, -1094, -564, -57890, 143080, 202020
29017, -596, -1023, -526, -46200, 163030, 193900
29037, -579, -979, -505, -42980, 191520, 185150
29057, -576, -959, -498, -40740, 215530, 179130
29077, -570, -944, -492, -30730, 234850, 168350
29097, -560, -918, -471, -8680, 251510, 149450
29117, -548, -883, -448, 12740, 265510, 131600
29137, -528, -843, -426, 23030, 272230, 124880
29157, -505, -792, -403, 29190, 265930, 128730
29177, -474, -734, -376, 39900, 254170, 131670
29197, -440, -666, -344, 56700, 247800, 125230
29217, -409, -599, -306, 77280, 246400, 113260
29237, -377, -538, -277, 96040, 246330, 103600
29257, -358, -499, -253, 110110, 242130, 101850
29277, -345, -479, -248, 121520, 231280, 108430
29297, -341, -475, -245, 132580, 218050, 117530
29317, -345, -484, -252, 143570, 208740, 123550
29337, -353, -496, -254, 151550, 205730, 126070
29357, -368, -525, -264, 155890, 204890, 128310
29377, -393, -576, -284, 155610, 199570, 135590
29397, -436, -660, -325, 150360, 188020, 148260
29417, -488, -771, -379, 142030, 173670, 162540
29437, -549, -893, -439, 130760, 160510, 174440
29457, -606, -1009, -488, 115850, 151760, 182560
29477, -653, -1098, -536, 89040, 144620, 191380
29497, -676, -1145, -561, 54040, 127960, 206640
29517, -666, -1128, -550, 23170, 105980, 217840
29537, -647, -1101, -536, 9940, 85890, 213360
29557, -569, -975, -433, 11270, 64330, 202230
29577, -625, -1048, -515, 11620, 37520, 201950
29597, -667, -1124, -581, -29820, 5040, 237510
29617, -650, -1117, -557, -67970, -6720, 248850
29637, -657, -1141, -530, -52710, 30240, 185290
29657, -687, -1205, -561, -33460, 70700, 115360
29677, -763, -1310, -634, -47320, 46620, 122990
29697, -785, -1361, -706, -126560, -66150, 211960
29717, -704, -1221, -611, -104160, -70210, 172060
29737, -631, -1079, -509, -80360, -53690, 110180
29757, -587, -993, -471, -91280, -67900, 101430
29777, -585, -963, -460, -104370, -95900, 110180
29797, -573, -945, -464, -120260, -115290, 107800
29817, -554, -902, -435, -106890, -135940, 91770
29837, -537, -865, -411, -96880, -150360, 71260
29857, -542, -873, -427, -109200, -161770, 61880
29877, -527, -840, -416, -112420, -176750, 50680
29897, -500, -784, -382, -107870, -173320, 17430
29917, -460, -708, -331, -105000, -168980, -18830
29937, -419, -612, -283, -94710, -187530, -34510
29957, -394, -552, -258, -95550, -221970, -27160
29977, -377, -522, -261, -112210, -250880, -11690
29997, -365, -504, -263, -126280, -263970, -6160
30017, -351, -484, -260, -131320, -247660, -26320
30037, -343, -476, -248, -140350, -202860, -68040
30057, -345, -477, -239, -147770, -151970, -113960
30077, -351, -490, -235, -142870, -121660, -147350
30097, -371, -531, -254, -139580, -108780, -164150
30117, -406, -607, -292, -148820, -98700, -169960
30137, -469, -735, -355, -163520, -85610, -172480
30157, -539, -867, -412, -174650, -69510, -178780
30177, -602, -999, -477, -179690, -62510, -183890
30197, -636, -1071, -512, -173250, -87850, -171640
30217, -629, -1071, -528, -173670, -132370, -137480
30237, -600, -1023, -518, -216510, -143360, -103040
30257, -569, -961, -482, -262570, -117250, -90790
30277, -545, -927, -464, -267680, -95760, -92260
30297, -546, -941, -470, -243110, -92330, -88760
30317, -574, -1015, -512, -220780, -86590, -78820
30337, -643, -1154, -586, -227990, -61110, -65520
30357, -732, -1319, -664, -248850, -23310, -53550
30377, -770, -1407, -708, -243880, -12670, -37520
30397, -771, -1401, -706, -218610, -32690, -11550
30417, -720, -1307, -672, -207200, -50400, 16520
30437, -655, -1179, -602, -205240, -47880, 33600
30457, -588, -1056, -531, -189560, -30310, 33390
30477, -549, -979, -488, -167930, -12250, 34790
30497, -551, -972, -491, -165130, 5950, 51450
30517, -577, -1012, -518, -172480, 25200, 73850
30537, -586, -1035, -529, -159040, 40530, 81550
30557, -571, -1010, -510, -117880, 52850, 69160
30577, -544, -956, -475, -78540, 66710, 53900
30597, -530, -899, -432, -66220, 79240, 55860
30617, -487, -800, -369, -68810, 82110, 71960
30637, -474, -802, -415, -88830, 85890, 84560
30657, -448, -723, -362, -111930, 78330, 100660
30677, -409, -651, -335, -50540, 52640, 102270
30697, -360, -566, -289, 20790, 42350, 78120
30717, -329, -503, -248, 51240, 71260, 43050
30737, -310, -453, -210, 48790, 104930, 30100
30757, -309, -454, -221, 37520, 115010, 48160
30777, -324, -476, -240, 29050, 100380, 86170
30797, -343, -504, -269, 45500, 83580, 108640
30817, -350, -525, -289, 89810, 76650, 99540
30837, -358, -530, -292, 142800, 88760, 62580
30857, -373, -561, -294, 188510, 114030, 22960
30877, -411, -635, -308, 205310, 137480, 7770
30897, -477, -776, -382, 192290, 141820, 27160
30917, -568, -955, -480, 169610, 118790, 68320
30937, -657, -1134, -582, 156730, 87920, 101640
30957, -710, -1241, -629, 158760, 65730, 109900
30977, -730, -1270, -618, 167230, 52010, 102550
30997, -695, -1221, -606, 149450, 33320, 103250
31017, -635, -1105, -560, 131250, -17640, 120400
31037, -578, -997, -504, 144830, -74550, 130410
31057, -549, -945, -463, 159950, -95480, 114450
31077, -583, -1001, -487, 146160, -87360, 94710
31097, -671, -1164, -589, 107450, -88270, 98770
31117, -757, -1328, -688, 78400, -106680, 109830
31137, -794, -1403, -712, 84700, -122780, 88620
31157, -780, -1374, -669, 100660, -122150, 38080
31177, -733, -1275, -631, 92400, -137620, 10850
31197, -667, -1137, -580, 69650, -202440, 35350
31217, -597, -997, -517, 52010, -262010, 57820
31237, -541, -882, -456, 40950, -275100, 41580
31257, -511, -819, -421, 32620, -259630, 5250
31277, -496, -789, -406, 27230, -246330, -27090
31297, -487, -772, -397, 24780, -245840, -47810
31317, -489, -780, -397, 19040, -242550, -65310
31337, -506, -805, -402, 140, -224770, -83090
31357, -515, -816, -409, -20580, -208950, -95550
31377, -503, -800, -405, -25970, -214760, -99120
31397, -481, -768, -392, -24220, -233100, -96530
31417, -458, -727, -372, -33600, -239190, -94080
31437, -434, -676, -339, -55300, -199080, -103040
31457, -397, -608, -303, -83160, -188930, -102410
31477, -362, -549, -272, -80430, -193760, -90370
31497, -335, -506, -254, -83790, -196840, -70210
31517, -317, -483, -244, -97160, -186550, -48860
31537, -309, -472, -241, -110530, -164990, -31220
31557, -307, -477, -243, -117110, -138250, -17710
31577, -315, -497, -252, -117950, -109200, -7070
31597, -331, -534, -266, -114730, -78820, 770
31617, -359, -597, -295, -111300, -48580, 9170
31637, -414, -703, -344, -112070, -19740, 21630
31657, -497, -869, -432, -116550, 4200, 39340
31677, -616, -1100, -548, -115430, 17850, 57750
31697, -704, -1271, -633, -103040, 18410, 72940
31717, -733, -1340, -667, -89950, 7140, 89460
31737, -697, -1270, -636, -81760, -12810, 112980
31757, -627, -1132, -570, -80780, -24010, 136360
31777, -569, -1014, -510, -88410, -13510, 150850
31797, -541, -956, -480, -92050, 7980, 160440
31817, -553, -980, -500, -90090, 32130, 168980
31837, -598, -1073, -551, -83160, 62230, 169400
31857, -656, -1185, -607, -72450, 100520, 159110
31877, -724, -1307, -663, -70000, 138390, 151060
31897, -770, -1384, -705, -76650, 156940, 158200
31917, -745, -1334, -680, -71750, 147770, 175700
31937, -685, -1214, -621, -55300, 133420, 188580
31957, -634, -1104, -569, -50190, 138880, 192220
31977, -595, -1016, -526, -54670, 163800, 185990
31997, -561, -945, -489, -50960, 190960, 172130
32017, -535, -886, -456, -32060, 211610, 153860
32037, -517, -847, -433, -9730, 228060, 137620
32057, -514, -834, -425, 2520, 241850, 129500
32077, -517, -832, -424, 6860, 250180, 129220
32097, -516, -820, -418, 12180, 251930, 129080
32117, -503, -796, -408, 25060, 249410, 122640
32137, -484, -759, -391, 45710, 246330, 109060
32157, -457, -707, -359, 66920, 246400, 92820
32177, -430, -654, -326, 80640, 245700, 83790
32197, -401, -596, -297, 87990, 237020, 87150
32217, -378, -554, -278, 96390, 218120, 99680
32237, -366, -530, -269, 106190, 196700, 114310
32257, -358, -517, -266, 115010, 183960, 122430
32277, -352, -500, -257, 124460, 181020, 121450
32297, -341, -480, -241, 136010, 180040, 116830
32317, -341, -482, -240, 146930, 171080, 119000
32337, -357, -520, -259, 150710, 153860, 131600
32357, -384, -582, -288, 149100, 137130, 146020
32377, -428, -666, -334, 143570, 128100, 156590
32397, -481, -777, -383, 133350, 128100, 162960
32417, -569, -945, -460, 118230, 130200, 169960
32437, -674, -1151, -561, 90300, 129430, 181090
32457, -784, -1360, -672, 54670, 121030, 192500
32477, -818, -1443, -714, 28000, 96320, 200830
32497, -762, -1340, -650, 27580, 52220, 202090
32517, -692, -1185, -560, 30520, 6370, 203140
32537, -635, -1090, -537, -2170, -28420, 220150
32557, -603, -1032, -522, -38570, -52570, 233310
32577, -567, -977, -473, -25270, -50330, 201460
32597, -595, -1021, -486, -12250, -28000, 154700
32617, -648, -1106, -521, -35840, -24080, 149800
32637, -736, -1279, -639, -63000, -49070, 171010
32657, -792, -1384, -706, -89250, -79310, 185080
32677, -732, -1271, -618, -76300, -94010, 159040
32697, -661, -1131, -545, -53270, -92470, 107800
32717, -606, -1004, -480, -61180, -118790, 98070
32737, -578, -946, -471, -74340, -169120, 119770
32757, -562, -908, -450, -97020, -196140, 128800
32777, -531, -854, -425, -99680, -201110, 109970
32797, -510, -811, -397, -89390, -198030, 75250
32817, -493, -778, -386, -83650, -196210, 44170
32837, -479, -742, -367, -78330, -204260, 23310
32857, -462, -710, -347, -77840, -206220, 2800
32877, -446, -669, -322, -92820, -198800, -18410
32897, -427, -625, -302, -98910, -203560, -31990
32917, -408, -586, -289, -95270, -227010, -33950
32937, -386, -552, -282, -94220, -251160, -32200
32957, -366, -525, -271, -99820, -258160, -36750
32977, -354, -507, -261, -112980, -241710, -50050
32997, -349, -500, -252, -134540, -204050, -71470
33017, -350, -499, -244, -155750, -159600, -96110
33037, -354, -509, -245, -161350, -131110, -115010
33057, -365, -538, -259, -156660, -121660, -122710
33077, -384, -585, -283, -156240, -118510, -121730
33097, -408, -647, -315, -161490, -112350, -116480
33117, -449, -729, -356, -170660, -99190, -109900
33137, -499, -834, -404, -183820, -75530, -105840
33157, -565, -970, -470, -196210, -51030, -101710
33177, -647, -1136, -556, -200620, -40250, -91280
33197, -725, -1278, -646, -227850, -34300, -55160
33217, -734, -1308, -657, -235760, -34160, -44590
33237, -683, -1217, -608, -212240, -52500, -34930
33257, -629, -1127, -561, -182490, -78890, -14070
33277, -607, -1094, -553, -187600, -77980, 13370
33297, -617, -1111, -570, -218330, -41160, 32760
33317, -638, -1147, -585, -233940, 5110, 35840
33337, -655, -1185, -598, -214550, 31780, 32410
33357, -679, -1235, -618, -177380, 35210, 36750
33377, -714, -1299, -657, -153230, 32410, 52780
33397, -722, -1312, -666, -142450, 34160, 70910
33417, -674, -1215, -615, -137130, 44800, 81900
33437, -623, -1113, -565, -144130, 64750, 89670
33457, -592, -1039, -528, -148330, 83580, 96670
33477, -561, -976, -496, -131040, 94570, 97160
33497, -527, -910, -458, -93800, 96740, 92400
33517, -504, -864, -433, -60130, 99890, 90300
33537, -498, -846, -427, -50960, 115500, 92470
33557, -498, -836, -424, -54110, 140210, 92190
33577, -497, -824, -416, -50120, 162750, 85680
33597, -481, -787, -393, -32060, 173600, 75880
33617, -452, -735, -362, -4410, 170170, 70210
33637, -426, -678, -335, 22050, 156660, 73850
33657, -402, -630, -312, 40530, 145460, 80570
33677, -379, -587, -294, 54320, 137690, 87500
33697, -355, -540, -272, 68110, 132370, 94850
33717, -347, -514, -268, 81900, 133350, 98490
33737, -341, -496, -256, 85960, 153650, 89670
33757, -345, -491, -246, 89740, 171290, 77910
33777, -339, -484, -243, 117810, 155820, 81550
33797, -332, -486, -249, 164500, 114170, 94290
33817, -344, -517, -271, 191380, 83370, 110250
33837, -377, -584, -304, 190890, 84700, 117460
33857, -449, -723, -371, 172550, 106610, 120120
33877, -526, -861, -433, 153790, 127260, 121660
33897, -614, -1034, -509, 143500, 131180, 125580
33917, -701, -1218, -600, 126770, 115150, 135660
33937, -753, -1322, -636, 107940, 79380, 152950
33957, -772, -1371, -688, 92260, 29260, 176050
33977, -714, -1257, -639, 91490, -40530, 202930
33997, -610, -1068, -518, 108780, -72380, 188020
34017, -590, -1021, -501, 92400, -62650, 160930
34037, -589, -1013, -492, 50470, -56630, 159740
34057, -637, -1095, -528, 34370, -61460, 154000
34077, -693, -1217, -611, 26600, -86800, 156030
34097, -736, -1295, -637, 36330, -122290, 155470
34117, -779, -1380, -694, 32620, -129570, 135310
34137, -747, -1313, -648, 10080, -140140, 119140
34157, -691, -1196, -593, 12180, -160860, 100870
34177, -634, -1071, -528, -4620, -179900, 89390
34197, -576, -954, -473, -10220, -214130, 90440
34217, -550, -896, -454, -10990, -245140, 87570
34237, -520, -850, -441, -12810, -265510, 79870
34257, -501, -805, -408, -1120, -270130, 55930
34277, -495, -802, -408, -12950, -240310, 18690
34297, -498, -789, -388, -39060, -208040, -12810
34317, -491, -772, -380, -47740, -195930, -32620
34337, -484, -747, -372, -53620, -204400, -41930
34357, -457, -700, -351, -50680, -227220, -43540
34377, -424, -645, -324, -40530, -248290, -47950
34397, -401, -607, -309, -47040, -249900, -55370
34417, -375, -563, -285, -66920, -238980, -59080
34437, -352, -522, -262, -80640, -224700, -61110
34457, -335, -494, -250, -99960, -202860, -60830
34477, -326, -474, -240, -125090, -173810, -59570
34497, -316, -462, -228, -139510, -149100, -58310
34517, -310, -457, -226, -141260, -133770, -54740
34537, -314, -471, -234, -139650, -123060, -48020
34557, -325, -503, -251, -136500, -112420, -39060
34577, -347, -559, -277, -130060, -95270, -32900
34597, -393, -656, -322, -129430, -65310, -31290
34617, -455, -794, -390, -135450, -27860, -29260
34637, -564, -1000, -486, -145530, 12040, -23380
34657, -726, -1300, -644, -173530, 54740, -9310
34677, -861, -1567, -795, -212030, 78890, 15540
34697, -845, -1552, -787, -201250, 50190, 39690
34717, -704, -1301, -647, -126840, -15540, 50050
34737, -586, -1060, -526, -80850, -50120, 56280
34757, -543, -962, -489, -120960, -23100, 72940
34777, -549, -963, -496, -182070, 19670, 98910
34797, -592, -1052, -546, -196980, 48160, 117390
34817, -662, -1197, -614, -173320, 73430, 113680
34837, -746, -1352, -679, -137130, 108150, 91070
34857, -795, -1444, -726, -108710, 138740, 72590
34877, -759, -1375, -692, -101990, 146160, 79450
34897, -681, -1215, -615, -103530, 133210, 101710
34917, -624, -1088, -552, -112910, 129150, 119910
34937, -589, -1012, -513, -129430, 143850, 135380
34957, -558, -954, -489, -94360, 147910, 125370
34977, -538, -912, -468, -57750, 163450, 100800
34997, -524, -883, -444, -33670, 193340, 72520
35017, -526, -874, -431, -29890, 222390, 57120
35037, -531, -880, -430, -33880, 231070, 61950
35057, -537, -887, -437, -33110, 218260, 76720
35077, -527, -866, -431, -21770, 198520, 85610
35097, -501, -814, -405, 1470, 181650, 82390
35117, -460, -737, -366, 32480, 169610, 71050
35137, -419, -658, -325, 58660, 161140, 62300
35157, -385, -594, -292, 71330, 154980, 63140
35177, -354, -535, -263, 75460, 151620, 70700
35197, -336, -494, -245, 79100, 150080, 80150
35217, -324, -470, -234, 86240, 146720, 89600
35237, -329, -471, -234, 97580, 138530, 98210
35257, -337, -488, -244, 112630, 126560, 104440
35277, -353, -523, -258, 130060, 111860, 107730
35297, -375, -572, -285, 146790, 94430, 111370
35317, -399, -630, -313, 160370, 78190, 116900
35337, -436, -709, -353, 162190, 72800, 123270
35357, -492, -817, -403, 140700, 84980, 129570
35377, -555, -932, -453, 104370, 104020, 134750
35397, -621, -1054, -504, 72730, 103950, 145880
35417, -661, -1142, -550, 58030, 66780, 170240
35437, -693, -1206, -593, 60760, 1610, 201740
35457, -709, -1249, -628, 67480, -48090, 217280
35477, -705, -1252, -626, 62580, -54530, 201880
35497, -695, -1223, -598, 47250, -36470, 171920
35517, -683, -1193, -574, 20370, -28840, 158060
35537, -689, -1196, -580, -5880, -55160, 171850
35557, -699, -1216, -604, -15050, -100940, 192430
35577, -701, -1227, -613, -8540, -136780, 193060
35597, -693, -1218, -609, 700, -148540, 171920
35617, -680, -1192, -588, -6230, -138600, 141750
35637, -672, -1157, -563, -26880, -126910, 118370
35657, -656, -1117, -542, -41020, -138110, 109690
35677, -631, -1062, -518, -40600, -172620, 111510
35697, -599, -1004, -499, -29820, -214270, 112980
35717, -565, -941, -472, -21490, -239400, 104440
35737, -531, -873, -437, -26810, -231910, 78750
35757, -506, -818, -402, -42210, -206920, 46620
35777, -492, -780, -380, -57260, -189420, 22610
35797, -486, -762, -372, -63910, -192150, 10850
35817, -482, -752, -373, -61670, -209440, 5390
35837, -469, -730, -366, -55510, -225120, -4130
35857, -446, -688, -342, -54180, -224770, -23730
35877, -415, -630, -308, -57330, -212240, -48930
35897, -380, -570, -279, -63770, -200060, -66640
35917, -358, -525, -255, -78820, -192640, -68530
35937, -344, -496, -245, -102130, -187250, -57680
35957, -334, -482, -240, -125790, -179970, -43750
35977, -328, -475, -238, -142450, -167300, -36820
35997, -327, -480, -241, -151410, -146020, -41580
36017, -331, -497, -249, -152880, -117390, -56070
36037, -345, -540, -268, -148400, -85890, -72870
36057, -384, -624, -301, -145950, -52290, -84700
36077, -444, -746, -357, -153650, -14980, -89040
36097, -532, -921, -441, -172690, 21910, -83720
36117, -649, -1142, -554, -194320, 47320, -68810
36137, -742, -1330, -656, -203910, 47040, -46130
36157, -757, -1366, -677, -185010, 10570, -18620
36177, -693, -1259, -635, -159390, -32410, 7840
36197, -630, -1125, -566, -169260, -38150, 24640
36217, -579, -1038, -523, -191380, -11270, 30170
36237, -567, -1014, -507, -198100, 19460, 30520
36257, -607, -1076, -546, -190400, 42560, 35140
36277, -677, -1223, -620, -184240, 62230, 45920
36297, -751, -1362, -689, -181650, 84630, 54460
36317, -789, -1436, -724, -167020, 101080, 54390
36337, -768, -1397, -698, -146370, 107240, 52150
36357, -717, -1289, -645, -137900, 108430, 56070
36377, -656, -1166, -586, -144830, 107240, 69510
36397, -601, -1055, -529, -146510, 104370, 81760
36417, -563, -979, -491, -129570, 102550, 84910
36437, -540, -934, -467, -112000, 112280, 80430
36457, -528, -903, -451, -99750, 132440, 71470
36477, -521, -884, -437, -87570, 151830, 62160
36497, -511, -863, -425, -72030, 162680, 55510
36517, -500, -834, -410, -52990, 164080, 52500
36537, -484, -803, -392, -36890, 161350, 53130
36557, -464, -756, -368, -26320, 158550, 55930
36577, -435, -701, -344, -15680, 152670, 60060
36597, -411, -646, -318, 350, 142800, 63560
36617, -383, -597, -293, 18760, 134330, 64540
36637, -361, -551, -271, 36540, 130200, 63000
36657, -341, -511, -251, 52780, 129360, 61460
36677, -327, -480, -234, 67270, 128590, 62650
36697, -319, -461, -225, 91560, 116130, 78540
36717, -322, -466, -231, 103740, 104090, 89390
36737, -332, -488, -246, 117670, 93730, 95690
36757, -349, -523, -266, 132160, 88200, 96390
36777, -372, -573, -287, 144690, 86520, 95060
36797, -403, -639, -319, 151760, 85190, 97720
36817, -454, -737, -361, 147840, 81900, 107520
36837, -527, -882, -431, 133000, 74200, 122780
36857, -619, -1069, -528, 114940, 60200, 139090
36877, -712, -1251, -618, 98140, 41300, 152110
36897, -773, -1372, -675, 80080, 16030, 161280
36917, -768, -1363, -674, 66640, -22890, 169680
36937, -714, -1268, -631, 65520, -65240, 172270
36957, -658, -1163, -576, 71610, -95410, 163310
36977, -612, -1077, -527, 67900, -108640, 151410
36997, -601, -1041, -509, 45850, -115780, 149660
37017, -615, -1065, -529, 20720, -129150, 157430
37037, -650, -1136, -574, 11480, -142800, 156450
37057, -711, -1249, -632, 17920, -147210, 133980
37077, -765, -1351, -678, 28280, -147350, 99470
37097, -772, -1365, -682, 32690, -162960, 76650
37117, -723, -1264, -631, 23100, -192850, 72730
37137, -658, -1121, -561, 2730, -222810, 76720
37157, -612, -1026, -519, -14490, -246820, 78610
37177, -583, -961, -494, -18060, -266280, 71050
37197, -550, -903, -472, -9170, -274680, 49000
37217, -518, -844, -434, -630, -263760, 12040
37237, -493, -795, -399, -6020, -235480, -28490
37257, -484, -770, -381, -22260, -214200, -51940
37277, -478, -755, -374, -38290, -215530, -52010
37297, -470, -733, -370, -47740, -233590, -41090
37317, -445, -692, -354, -51520, -247450, -36260
37337, -416, -637, -328, -54180, -244090, -44870
37357, -376, -568, -287, -58310, -227010, -59920
37377, -344, -510, -256, -65310, -206850, -70350
37397, -318, -466, -232, -75390, -190330, -70070
37417, -303, -442, -223, -89180, -175000, -60340
37437, -299, -441, -223, -106400, -155750, -46340
37457, -306, -462, -233, -121100, -131950, -34510
37477, -319, -493, -248, -126490, -104790, -29400
37497, -336, -539, -269, -123900, -73570, -31710
37517, -373, -617, -301, -121870, -35840, -37030
37537, -438, -750, -363, -129570, 6650, -37590
37557, -535, -939, -458, -147840, 46060, -28910
37577, -665, -1186, -583, -166810, 71260, -11970
37597, -733, -1318, -654, -172830, 71820, 8890
37617, -697, -1262, -620, -147350, 38500, 30520
37637, -619, -1118, -554, -107660, -10640, 58520
37657, -557, -990, -498, -109200, -25760, 87780
37677, -523, -924, -473, -141190, 7630, 102410
37697, -531, -932, -474, -165340, 61040, 100940
37717, -575, -1013, -513, -165690, 108010, 92890
37737, -649, -1158, -582, -145530, 137130, 86030
37757, -756, -1362, -686, -124390, 153230, 87010
37777, -847, -1537, -782, -118720, 164360, 94990
37797, -834, -1509, -765, -114380, 164220, 102130
37817, -730, -1307, -656, -100870, 158830, 99120
37837, -643, -1126, -560, -98000, 160160, 95200
37857, -584, -1004, -500, -111230, 167930, 100100
37877, -546, -927, -466, -109270, 169610, 104300
37897, -527, -890, -450, -85050, 166390, 101920
37917, -527, -882, -441, -58800, 174230, 89390
37937, -542, -900, -452, -45150, 198730, 69300
37957, -554, -917, -453, -42560, 224910, 49420
37977, -565, -936, -444, -49350, 245210, 29960
37997, -557, -929, -451, -53970, 232330, 31640
38017, -529, -878, -437, -13650, 170030, 53690
38037, -468, -768, -368, 42210, 127890, 51310
38057, -428, -692, -327, 56420, 137340, 28420
38077, -410, -641, -304, 16310, 160650, 31080
38097, -388, -589, -280, -13650, 157080, 56700
38117, -376, -563, -275, -7840, 131530, 78680
38137, -350, -521, -261, 19670, 101150, 83650
38157, -321, -472, -233, 61740, 79240, 69650
38177, -301, -432, -203, 99610, 72030, 49770
38197, -309, -444, -209, 107030, 75670, 44100
38217, -331, -490, -238, 91560, 72310, 60200
38237, -364, -561, -279, 85680, 55860, 80990
38257, -395, -634, -313, 95410, 42700, 86940
38277, -432, -716, -351, 105770, 43190, 80920
38297, -492, -823, -392, 109270, 47250, 81830
38317, -593, -1002, -483, 97510, 46550, 98910
38337, -701, -1214, -611, 59920, 38220, 127820
38357, -741, -1312, -665, 32550, 13440, 145880
38377, -707, -1253, -613, 60970, -26670, 135240
38397, -650, -1143, -546, 97510, -57890, 112280
38417, -627, -1089, -538, 85680, -86310, 115080
38437, -622, -1075, -543, 39550, -136360, 156870
38457, -615, -1066, -537, 21630, -148820, 142170
38477, -642, -1114, -552, 36540, -151620, 114240
38497, -689, -1212, -608, 34090, -159320, 96880
38517, -757, -1336, -677, 29400, -174860, 86450
38537, -778, -1373, -693, 25200, -186130, 67550
38557, -736, -1280, -635, 17710, -201530, 49840
38577, -690, -1172, -589, 350, -239470, 57610
38597, -638, -1064, -552, -6860, -288470, 70910
38617, -584, -964, -510, 7700, -313040, 54950
38637, -537, -875, -460, 16450, -299670, 12880
38657, -512, -825, -420, 9100, -270620, -28000
38677, -516, -830, -421, -7070, -254660, -47740
38697, -543, -877, -450, -23800, -254870, -51730
38717, -568, -926, -478, -33950, -254730, -60410
38737, -578, -942, -483, -39340, -247100, -79170
38757, -557, -895, -455, -42490, -238560, -100590
38777, -509, -807, -408, -42980, -241850, -112000
38797, -456, -707, -359, -43540, -257670, -108150
38817, -405, -614, -315, -54180, -267470, -96670
38837, -364, -543, -281, -74130, -261380, -84280
38857, -332, -486, -251, -94570, -245700, -70770
38877, -306, -444, -234, -110250, -224630, -58240
38897, -285, -412, -217, -122010, -199500, -47250
38917, -271, -403, -211, -129850, -170310, -38080
38937, -275, -412, -214, -134330, -136850, -30800
38957, -284, -437, -223, -135030, -101220, -24780
38977, -300, -475, -237, -129570, -67830, -18340
38997, -324, -528, -261, -119280, -39480, -8610
39017, -367, -618, -302, -112420, -13720, 7350
39037, -447, -772, -384, -113050, 11130, 29330
39057, -569, -1013, -509, -115360, 32830, 52290
39077, -712, -1296, -654, -111160, 48090, 70210
39097, -808, -1480, -743, -105700, 57400, 81690
39117, -774, -1419, -716, -109760, 55020, 94640
39137, -668, -1215, -609, -99540, 29050, 115570
39157, -579, -1047, -525, -73500, 3710, 135450
39177, -537, -957, -484, -68810, 10360, 149730
39197, -540, -954, -490, -87640, 45990, 162540
39217, -584, -1027, -536, -111650, 93800, 169960
39237, -640, -1135, -591, -116760, 142870, 160650
39257, -705, -1259, -643, -90720, 179830, 136710
39277, -752, -1352, -680, -57750, 198660, 121030
39297, -760, -1360, -683, -42070, 195860, 129640
39317, -719, -1272, -644, -48440, 180740, 156240
39337, -646, -1116, -575, -64400, 178920, 171570
39357, -588, -990, -508, -71540, 199080, 162890
39377, -542, -896, -452, -66290, 224630, 142240
39397, -518, -848, -429, -44730, 234220, 126910
39417, -521, -849, -434, -15190, 227920, 121590
39437, -530, -866, -446, 6300, 228900, 115080
39457, -542, -881, -448, 15890, 246960, 99050
39477, -545, -875, -438, 16800, 269150, 81200
39497, -530, -849, -418, 19600, 275100, 70350
39517, -503, -805, -399, 33530, 255080, 70560
39537, -468, -743, -362, 53410, 223650, 76090
39557, -425, -659, -319, 70280, 200060, 79870
39577, -390, -592, -287, 80990, 183750, 84910
39597, -367, -543, -265, 86030, 169120, 94500
39617, -350, -509, -252, 89880, 156590, 103670
39637, -335, -481, -241, 96460, 149590, 106190
39657, -329, -469, -235, 105070, 149030, 102760
39677, -323, -456, -226, 112980, 151620, 97860
39697, -322, -459, -221, 119980, 150360, 97090
39717, -341, -498, -237, 124390, 137270, 108430
39737, -380, -575, -279, 121030, 117110, 129850
39757, -443, -689, -347, 111230, 104300, 148330
39777, -526, -867, -430, 96950, 106120, 156660
39797, -622, -1052, -515, 79730, 117740, 155540
39817, -706, -1223, -589, 63350, 126140, 149030
39837, -765, -1350, -654, 47180, 115150, 148330
39857, -772, -1356, -660, 28910, 77420, 162260
39877, -710, -1244, -605, 14070, 28490, 181090
39897, -626, -1076, -511, 5040, -17500, 193410
39917, -568, -967, -475, -1680, -50470, 197610
39937, -539, -908, -449, -20300, -64330, 198450
39957, -531, -898, -431, -36260, -52780, 182910
39977, -598, -998, -485, -38500, -34650, 155820
39997, -690, -1202, -587, -39270, -35910, 144480
40017, -785, -1379, -688, -42350, -62510, 153860
40037, -805, -1422, -719, -50680, -86520, 157780
40057, -729, -1269, -614, -62790, -92610, 137620
40077, -645, -1093, -518, -58450, -95830, 102690
40097, -588, -965, -470, -62020, -130130, 99680
40117, -543, -875, -435, -71960, -185640, 125230
40137, -503, -808, -409, -75530, -222110, 134960
40157, -477, -758, -379, -73220, -227010, 117810
40177, -464, -739, -362, -62440, -210140, 80850
40197, -481, -764, -371, -70630, -169400, 21350
40217, -498, -795, -390, -78820, -165480, 6790
40237, -515, -817, -399, -82390, -162190, -12950
40257, -513, -803, -386, -79450, -163870, -36330
40277, -482, -742, -350, -61530, -186550, -52570
40297, -447, -678, -326, -47740, -227990, -48580
40317, -412, -621, -306, -57260, -256270, -34790
40337, -385, -572, -289, -85960, -250040, -30240
40357, -368, -541, -274, -119700, -216160, -38990
40377, -358, -522, -263, -146020, -172830, -57190
40397, -352, -510, -251, -157150, -136920, -78820
40417, -344, -500, -241, -151830, -117180, -97160
40437, -345, -510, -248, -144200, -105980, -108780
40457, -360, -547, -265, -145040, -89810, -116620
40477, -394, -618, -295, -150710, -67900, -121100
40497, -443, -725, -347, -155190, -47670, -120400
40517, -512, -871, -416, -160580, -29260, -114730
40537, -596, -1037, -498, -175910, -9660, -103530
40557, -680, -1200, -582, -204680, 4410, -84280
40577, -735, -1294, -642, -227500, -3430, -58940
40597, -708, -1260, -631, -208110, -40670, -39970
40617, -640, -1148, -572, -162890, -77770, -31850
40637, -582, -1044, -518, -164500, -66500, -27720
40657, -569, -1009, -503, -204400, -26810, -15540
40677, -578, -1026, -517, -231140, 1330, 6510
40697, -613, -1101, -556, -225680, 12040, 24150
40717, -667, -1205, -608, -199570, 22820, 28070
40737, -720, -1304, -655, -175350, 41230, 24850
40757, -729, -1330, -669, -159600, 54740, 25270
40777, -688, -1248, -624, -143290, 53340, 34020
40797, -635, -1134, -567, -140630, 54040, 49000
40817, -591, -1042, -521, -153160, 61950, 68180
40837, -562, -976, -491, -151690, 64190, 84700
40857, -538, -933, -474, -128590, 64400, 89320
40877, -525, -909, -459, -94570, 74550, 78400
40897, -517, -889, -447, -70700, 102340, 59010
40917, -512, -869, -425, -63560, 134190, 45430
40937, -503, -846, -415, -59500, 147910, 48020
40957, -493, -826, -406, -51660, 141610, 62230
40977, -480, -799, -397, -41790, 130900, 76580
40997, -462, -761, -379, -28000, 124180, 83720
41017, -441, -712, -355, -7420, 122220, 81270
41037, -413, -655, -326, 19250, 121170, 72590
41057, -380, -597, -297, 47460, 117880, 64470
41077, -354, -544, -270, 69020, 117110, 61180
41097, -337, -509, -252, 77840, 122780, 64190
41117, -328, -486, -241, 80360, 129780, 73010
41137, -326, -474, -235, 87850, 129710, 84840
41157, -331, -481, -240, 104230, 119910, 95900
41177, -346, -512, -261, 125510, 106120, 102410
41197, -376, -571, -293, 146160, 95200, 103600
41217, -410, -647, -333, 164010, 91840, 99610
41237, -460, -746, -378, 176330, 95130, 94500
41257, -531, -885, -437, 174790, 100870, 94710
41277, -625, -1073, -527, 156170, 101360, 104510
41297, -730, -1278, -630, 126140, 89530, 123550
41317, -767, -1352, -668, 96460, 62370, 144970
41337, -721, -1265, -624, 85610, 12880, 163660
41357, -647, -1134, -564, 98490, -50680, 175700
41377, -597, -1038, -518, 107590, -94570, 176750
41397, -570, -987, -486, 96740, -98630, 162890
41417, -576, -991, -480, 75670, -84140, 142520
41437, -617, -1066, -518, 55580, -80080, 132860
41457, -692, -1208, -600, 41230, -97720, 137550
41477, -769, -1354, -684, 30800, -120610, 140000
41497, -786, -1386, -699, 26320, -132790, 121310
41517, -709, -1233, -606, 32620, -143360, 87780
41537, -626, -1068, -519, 37170, -169190, 67550
41557, -572, -951, -469, 21350, -206080, 73290
41577, -542, -889, -450, -3920, -237370, 86450
41597, -528, -856, -439, -15820, -255850, 86800
41617, -512, -834, -430, -11410, -256620, 64680
41637, -508, -819, -416, -3080, -240030, 24710
41657, -506, -818, -406, -3990, -211960, -18690
41677, -510, -822, -402, -17640, -187670, -49980
41697, -510, -815, -399, -31990, -185220, -60200
41717, -495, -780, -388, -39970, -204120, -55160
41737, -465, -725, -363, -45570, -226450, -48230
41757, -429, -654, -331, -51520, -241150, -46340
41777, -390, -590, -298, -54530, -246260, -50750
41797, -355, -532, -270, -62160, -237580, -58100
41817, -326, -485, -244, -80150, -214480, -64330
41837, -311, -454, -226, -103180, -184380, -65730
41857, -303, -442, -217, -125720, -155190, -60480
41877, -311, -456, -225, -141680, -131880, -52080
41897, -325, -492, -245, -145110, -117810, -43190
41917, -340, -542, -269, -135100, -108710, -38220
41937, -369, -615, -306, -120540, -61180, -40670
41957, -438, -753, -369, -140910, -9520, -38360
41977, -539, -940, -458, -176890, 43470, -30870
41997, -664, -1174, -578, -193690, 61180, -14280
42017, -740, -1339, -662, -168070, 29330, 8470
42037, -730, -1327, -652, -125930, -23100, 35560
42057, -666, -1206, -605, -122150, -52500, 66920
42077, -597, -1069, -539, -139160, -46970, 85820
42097, -537, -964, -489, -144340, -21420, 88130
42117, -516, -922, -465, -148750, 19180, 85680
42137, -545, -967, -486, -161490, 66500, 86730
42157, -607, -1075, -541, -163170, 95760, 94430
42177, -680, -1225, -621, -134190, 97580, 102060
42197, -733, -1338, -675, -95970, 94780, 104860
42217, -764, -1385, -702, -90790, 112420, 105070
42237, -735, -1318, -664, -112630, 140280, 106400
42257, -667, -1181, -593, -116200, 143710, 112770
42277, -597, -1046, -525, -96180, 130270, 121380
42297, -560, -965, -486, -80290, 128940, 126140
42317, -543, -927, -470, -73640, 143990, 124740
42337, -531, -900, -456, -62370, 163450, 115500
42357, -527, -883, -449, -44940, 181090, 101570
42377, -525, -874, -442, -30870, 199640, 85960
42397, -516, -852, -423, -21210, 217700, 71470
42417, -503, -821, -402, -8820, 222460, 65590
42437, -481, -778, -379, 7980, 206150, 73080
42457, -453, -728, -358, 24850, 179410, 87920
42477, -432, -684, -341, 36750, 160370, 99400
42497, -410, -637, -322, 43960, 160020, 99330
42517, -390, -591, -297, 53900, 170100, 89040
42537, -368, -542, -271, 71610, 176470, 77210
42557, -344, -501, -246, 95060, 169750, 72660
42577, -332, -483, -239, 115430, 153510, 78960
42597, -332, -485, -244, 126910, 137970, 91910
42617, -347, -512, -260, 130760, 129220, 105770
42637, -367, -552, -277, 131320, 127260, 115640
42657, -396, -609, -302, 132300, 126490, 121870
42677, -439, -693, -344, 132510, 122780, 127750
42697, -492, -800, -397, 128730, 119420, 132090
42717, -554, -924, -454, 118930, 117880, 134050
42737, -607, -1035, -503, 107380, 112210, 136640
42757, -648, -1121, -538, 98420, 91140, 145810
42777, -682, -1184, -575, 83580, 55440, 166390
42797, -691, -1201, -592, 55440, 19530, 190610
42817, -669, -1157, -566, 31500, -4970, 199780
42837, -620, -1071, -522, 33530, -24430, 187810
42857, -603, -1044, -504, 45640, -44310, 172060
42877, -624, -1080, -525, 36960, -57190, 167860
42897, -662, -1147, -561, 6230, -60270, 169540
42917, -692, -1201, -589, -19110, -65100, 167790
42937, -708, -1237, -608, -23170, -81130, 159880
42957, -717, -1250, -613, -21280, -100520, 147840
42977, -698, -1214, -592, -26250, -117040, 134190
42997, -658, -1130, -549, -27720, -137970, 120820
43017, -608, -1029, -497, -21980, -166880, 112350
43037, -571, -951, -459, -25690, -190400, 108570
43057, -554, -911, -447, -45150, -201040, 105980
43077, -550, -894, -446, -62720, -205030, 98140
43097, -534, -866, -431, -62090, -207620, 77490
43117, -515, -830, -409, -47110, -206150, 43610
43137, -496, -790, -382, -35910, -201950, 8890
43157, -479, -753, -362, -38150, -201880, -12810
43177, -467, -724, -353, -49490, -211750, -17990
43197, -448, -689, -341, -60830, -227010, -15330
43217, -429, -654, -326, -69720, -235760, -16590
43237, -413, -624, -313, -79380, -230510, -26390
43257, -391, -588, -292, -90160, -215250, -42420
43277, -372, -552, -273, -96950, -198870, -60200
43297, -357, -527, -258, -100310, -185360, -75110
43317, -353, -517, -250, -107170, -169890, -85400
43337, -350, -522, -252, -119140, -151200, -90860
43357, -357, -539, -257, -131250, -134330, -90860
43377, -372, -574, -278, -140000, -121030, -87080
43397, -394, -626, -305, -147630, -107660, -81410
43417, -428, -705, -343, -156450, -89950, -75950
43437, -476, -801, -392, -165830, -68110, -70490
43457, -538, -923, -450, -178430, -41650, -65870
43477, -607, -1041, -515, -194040, -13230, -63000
43497, -648, -1140, -554, -196560, -1680, -57750
43517, -649, -1159, -568, -177800, -17920, -44450
43537, -638, -1144, -567, -157990, -46340, -22190
43557, -616, -1099, -551, -164220, -57400, 5740
43577, -600, -1067, -537, -192500, -41580, 28560
43597, -598, -1070, -541, -210770, -18130, 42770
43617, -620, -1120, -566, -203350, 980, 47600
43637, -661, -1200, -601, -181720, 20720, 44170
43657, -707, -1288, -643, -159460, 42210, 40810
43677, -735, -1338, -671, -151550, 59290, 48160
43697, -717, -1295, -655, -159530, 67900, 86030
43717, -672, -1206, -610, -152810, 70840, 94430
43737, -629, -1122, -569, -134470, 76020, 94780
43757, -591, -1043, -526, -111790, 83090, 92050
43777, -556, -975, -491, -93590, 95690, 89810
43797, -537, -930, -466, -87290, 116130, 89250
43817, -529, -909, -455, -87500, 138320, 90650
43837, -530, -902, -452, -81340, 153930, 91140
43857, -525, -887, -443, -64820, 160580, 89180
43877, -513, -860, -427, -41020, 159390, 85890
43897, -497, -824, -410, -15890, 155400, 82460
43917, -468, -774, -384, 5110, 154490, 78190
43937, -441, -714, -352, 20930, 156310, 74970
43957, -411, -654, -320, 31850, 158270, 75950
43977, -387, -601, -297, 38430, 158760, 81830
43997, -371, -562, -279, 45570, 157430, 89250
44017, -358, -533, -264, 58870, 153720, 94220
44037, -345, -508, -256, 80920, 147350, 95200
44057, -336, -492, -253, 108220, 138180, 94850
44077, -335, -490, -249, 133840, 128870, 95550
44097, -343, -506, -260, 152740, 122920, 97510
44117, -359, -542, -277, 161560, 122430, 100870
44137, -390, -601, -305, 160860, 127960, 105560
44157, -431, -672, -336, 152670, 135170, 112770
44177, -485, -782, -384, 141190, 136290, 123130
44197, -554, -921, -452, 132020, 124950, 136010
44217, -617, -1057, -517, 127680, 100380, 150500
44237, -677, -1177, -574, 120190, 67900, 169190
44257, -717, -1247, -617, 98700, 38920, 187320
44277, -705, -1231, -612, 77770, 14280, 193830
44297, -662, -1153, -567, 73780, -8190, 186200
44317, -619, -1070, -516, 70770, -26880, 176820
44337, -597, -1027, -493, 56490, -45080, 177100
44357, -606, -1042, -507, 35910, -65240, 185220
44377, -647, -1124, -555, 22190, -83790, 189560
44397, -702, -1227, -611, 18060, -91630, 177730
44417, -741, -1308, -644, 12810, -85610, 150150
44437, -748, -1311, -638, 1400, -83090, 123550
44457, -708, -1231, -598, -7910, -106260, 113610
44477, -662, -1134, -551, -8330, -152880, 118790
44497, -623, -1051, -515, -12530, -194880, 124810
44517, -585, -977, -486, -24430, -215950, 120330
44537, -552, -908, -455, -32410, -220220, 101920
44557, -523, -854, -424, -33250, -213290, 71190
44577, -506, -812, -397, -32760, -202580, 37170
44597, -499, -794, -386, -35350, -198240, 11970
44617, -498, -784, -385, -40810, -205800, -1260
44637, -488, -768, -380, -45640, -220150, -8680
44657, -468, -728, -361, -49420, -231280, -18690
44677, -444, -679, -339, -55580, -231630, -34440
44697, -418, -632, -312, -65870, -224980, -50890
44717, -399, -591, -293, -77840, -219380, -61460
44737, -381, -559, -279, -91350, -216160, -65100
44757, -366, -536, -270, -105490, -210350, -66710
44777, -357, -524, -263, -119490, -197610, -70770
44797, -353, -517, -255, -132020, -176960, -79380
44817, -355, -525, -257, -141540, -153720, -89810
44837, -357, -547, -266, -145320, -135170, -97160
44857, -368, -581, -282, -145950, -122150, -97090
44877, -399, -647, -315, -155610, -105840, -87780
44897, -455, -755, -371, -180530, -79940, -72170
44917, -528, -894, -439, -208670, -50750, -57540
44937, -594, -1035, -513, -216230, -34650, -49350
44957, -635, -1126, -553, -192990, -41510, -44240
44977, -649, -1158, -566, -165970, -53760, -36540
44997, -644, -1150, -572, -173180, -56560, -16240
45017, -615, -1095, -552, -196000, -61390, 17010
45037, -586, -1052, -537, -194810, -71680, 45990
45057, -582, -1046, -533, -182910, -66920, 61110
45077, -612, -1100, -557, -182770, -36330, 66430
45097, -661, -1198, -610, -189420, -140, 71820
45117, -700, -1282, -649, -178640, 21630, 77910
45137, -725, -1331, -668, -149380, 33180, 78680
45157, -717, -1303, -653, -135940, 46760, 83510
45177, -681, -1227, -620, -141610, 53270, 102830
45197, -637, -1140, -583, -139160, 43890, 129150
45217, -595, -1061, -543, -122570, 41020, 140980
45237, -565, -996, -503, -104580, 63700, 133280
45257, -552, -958, -480, -97650, 101850, 120120
45277, -545, -940, -472, -90650, 129080, 115640
45297, -544, -931, -476, -75040, 136290, 120820
45317, -538, -918, -467, -57960, 141330, 124740
45337, -529, -888, -448, -43470, 155610, 119910
45357, -510, -845, -422, -29540, 171430, 111440
45377, -482, -791, -395, -14770, 178220, 106960
45397, -455, -734, -369, 3150, 174860, 106890
45417, -425, -671, -340, 21210, 171990, 106260
45437, -394, -605, -305, 37030, 176960, 100030
45457, -363, -540, -272, 73010, 174230, 102480
45477, -341, -499, -251, 87640, 169820, 109130
45497, -328, -472, -241, 98420, 168210, 116270
45517, -327, -460, -239, 108500, 170520, 120540
45537, -331, -465, -243, 122430, 173670, 119770
45557, -338, -476, -249, 145740, 172060, 114380
45577, -345, -499, -259, 174020, 163380, 109410
45597, -367, -543, -282, 192920, 154490, 110530
45617, -400, -613, -310, 192710, 151690, 119980
45637, -459, -728, -362, 177730, 150010, 137550
45657, -544, -894, -446, 158550, 141750, 158550
45677, -652, -1114, -556, 142030, 128660, 173880
45697, -738, -1284, -634, 121520, 115920, 181930
45717, -773, -1347, -661, 87150, 101360, 188510
45737, -717, -1254, -612, 67690, 60200, 198660
45757, -633, -1099, -533, 84210, -7350, 212800
45777, -559, -967, -470, 94010, -50330, 218330
45797, -536, -910, -441, 69510, -47250, 214830
45817, -560, -945, -461, 26600, -24500, 208250
45837, -626, -1075, -526, -910, -10990, 198240
45857, -723, -1269, -628, 1820, -18970, 182350
45877, -832, -1481, -731, 15050, -32270, 159320
45897, -863, -1545, -749, 13160, -47250, 135590
45917, -778, -1370, -660, -1260, -88620, 135100
45937, -668, -1145, -552, -17360, -149660, 156940
45957, -588, -976, -478, -39690, -187110, 168840
45977, -541, -881, -433, -58730, -195650, 159320
45997, -515, -833, -410, -61670, -193270, 134190
46017, -504, -815, -404, -47320, -191450, 100240
46037, -502, -813, -395, -29470, -185710, 60130
46057, -508, -820, -391, -26460, -171150, 21700
46077, -523, -837, -396, -42770, -160790, -2380
46097, -529, -840, -403, -61390, -171990, -7770
46117, -512, -798, -387, -68320, -201950, -6020
46137, -481, -735, -363, -66220, -233590, -8750
46157, -441, -661, -327, -66570, -251510, -19880
46177, -402, -589, -294, -76720, -251020, -36610
46197, -369, -529, -265, -94430, -240170, -51800
46217, -345, -483, -244, -111790, -226730, -62790
46237, -330, -458, -231, -127190, -210910, -71190
46257, -327, -453, -226, -143220, -190400, -80010
46277, -331, -465, -231, -157150, -168560, -90370
46297, -338, -489, -242, -162680, -151340, -101080
46317, -351, -529, -262, -162750, -135520, -109970
46337, -388, -609, -300, -169890, -110180, -116620
46357, -447, -726, -351, -188230, -74690, -120470
46377, -518, -873, -420, -204820, -45710, -119000
46397, -606, -1045, -505, -210140, -36260, -109270
46417, -677, -1195, -589, -213920, -46060, -86170
46437, -700, -1236, -616, -210910, -75460, -54460
46457, -656, -1163, -588, -204750, -103180, -26740
46477, -595, -1054, -530, -204820, -113820, -8120
46497, -555, -981, -495, -207130, -107170, 7630
46517, -557, -987, -503, -218820, -87640, 25270
46537, -590, -1062, -548, -226030, -61810, 41230
46557, -666, -1213, -618, -214130, -36820, 48160
46577, -736, -1351, -683, -194740, -11060, 48370
46597, -766, -1404, -706, -177660, 8540, 49980
46617, -722, -1316, -662, -167790, 10150, 64330
46637, -648, -1177, -592, -156100, -4480, 88130
46657, -603, -1083, -549, -141330, -15400, 110390
46677, -577, -1029, -525, -140770, -3360, 125300
46697, -558, -986, -501, -138740, 22330, 130550
46717, -552, -970, -492, -127400, 49770, 128870
46737, -565, -994, -507, -111300, 74970, 124390
46757, -586, -1029, -524, -90930, 96250, 118300
46777, -593, -1034, -518, -69440, 115990, 111090
46797, -573, -989, -494, -51660, 129640, 108010
46817, -536, -915, -460, -41440, 131180, 115500
46837, -496, -830, -422, -34300, 127120, 126630
46857, -450, -734, -373, -21140, 129010, 128800
46877, -407, -646, -324, 700, 138320, 119980
46897, -372, -573, -288, 24220, 147280, 111510
46917, -346, -516, -264, 45570, 150360, 110740
46937, -327, -478, -250, 66360, 149380, 115220
46957, -320, -457, -246, 87430, 150150, 118510
46977, -318, -447, -243, 108640, 156590, 115850
46997, -320, -443, -241, 130760, 168420, 107310
47017, -323, -444, -238, 153790, 180390, 97440
47037, -331, -459, -243, 175000, 186620, 92890
47057, -353, -505, -266, 188860, 184800, 98980
47077, -390, -579, -301, 193130, 179060, 112420
47097, -440, -681, -356, 193900, 173810, 125300
47117, -500, -807, -415, 197330, 168210, 134470
47137, -585, -974, -488, 200340, 163240, 141330
47157, -693, -1182, -584, 187600, 162120, 150360
47177, -784, -1370, -682, 150010, 157500, 166530
47197, -777, -1383, -681, 109620, 70700, 204330
47217, -687, -1201, -590, 118720, 18340, 208600
47237, -609, -1046, -506, 104160, -9170, 209720
47257, -568, -969, -470, 74270, -22960, 214130
47277, -566, -968, -476, 52920, -33530, 216650
47297, -593, -1019, -504, 46690, -36680, 206010
47317, -641, -1113, -545, 41650, -28910, 182630
47337, -709, -1240, -601, 28490, -24080, 161630
47357, -761, -1343, -656, 13790, -40740, 153650
47377, -771, -1355, -664, 7770, -76860, 152670
47397, -718, -1252, -610, 2940, -110320, 147350
47417, -652, -1115, -539, -16520, -131180, 140770
47437, -608, -1015, -494, -34510, -155750, 137830
47457, -573, -951, -467, -35490, -183400, 130900
47477, -555, -913, -454, -28490, -196560, 108570
47497, -545, -898, -444, -28490, -188300, 72660
47517, -548, -896, -432, -38850, -173390, 36750
47537, -549, -884, -426, -49210, -173740, 12390
47557, -536, -850, -412, -51100, -195580, 280
47577, -508, -798, -391, -51310, -222810, -8610
47597, -474, -728, -356, -58590, -241640, -18200
47617, -436, -651, -322, -73220, -251230, -27370
47637, -400, -576, -287, -89180, -256200, -35070
47657, -370, -520, -266, -100310, -257670, -43890
47677, -345, -472, -245, -109200, -250950, -56280
47697, -323, -440, -229, -121800, -234080, -70840
47717, -309, -421, -215, -137060, -210350, -84770
47737, -304, -417, -211, -151550, -184520, -95760
47757, -310, -436, -218, -165970, -158340, -103390
47777, -333, -485, -241, -177940, -134470, -107730
47797, -367, -558, -273, -182980, -114380, -110740
47817, -415, -661, -324, -184170, -93520, -115010
47837, -486, -814, -396, -191310, -67900, -117740
47857, -602, -1038, -503, -206990, -42770, -113260
47877, -703, -1234, -605, -223720, -33950, -98840
47897, -741, -1314, -653, -220710, -64960, -69440
47917, -685, -1216, -612, -197540, -122780, -29750
47937, -603, -1062, -539, -189630, -159460, 4340
47957, -537, -940, -480, -206570, -150360, 24570
47977, -506, -879, -447, -220710, -122150, 35350
47997, -508, -903, -462, -215600, -95550, 46130
48017, -571, -1029, -526, -203210, -68250, 55300
48037, -672, -1231, -628, -192360, -33950, 60690
48057, -784, -1444, -731, -179690, -2730, 62580
48077, -823, -1522, -769, -166530, 8610, 70770
48097, -740, -1359, -683, -150710, -6440, 88760
48117, -645, -1168, -586, -131390, -30520, 111300
48137, -566, -1009, -510, -122990, -38990, 132650
48157, -518, -910, -462, -117740, -27930, 146160
48177, -506, -883, -453, -113680, -2170, 152110
48197, -518, -904, -468, -108500, 34020, 149870
48217, -538, -940, -481, -91700, 73640, 136010
48237, -558, -960, -472, -63980, 109830, 115290
48257, -553, -938, -435, -36680, 130200, 102970
48277, -565, -979, -488, -36120, 132580, 110880
48297, -564, -957, -493, -60270, 119630, 139790
48317, -495, -841, -437, -24500, 101920, 148610
48337, -440, -717, -352, 31220, 112420, 112980
48357, -385, -611, -290, 51380, 146930, 82040
48377, -372, -569, -276, 33530, 165900, 90370
48397, -360, -538, -275, 18620, 149590, 135660
48417, -358, -519, -270, 31920, 127470, 164850
48437, -335, -483, -264, 64190, 125930, 157360
48457, -318, -445, -243, 111020, 137270, 122010
48477, -305, -421, -229, 155890, 155540, 87990
48497, -312, -426, -223, 179550, 175560, 70560
48517, -348, -485, -253, 181160, 190890, 75180
48537, -394, -571, -302, 174300, 191590, 92680
48557, -444, -677, -356, 180110, 183750, 101360
48577, -491, -798, -409, 201950, 174440, 94220
48597, -566, -955, -474, 226240, 160720, 92470
48617, -661, -1125, -549, 222460, 143290, 117320
48637, -746, -1279, -638, 174720, 129010, 159040
48657, -734, -1285, -658, 113260, 109130, 189000
48677, -666, -1152, -574, 105980, 67900, 189350
48697, -605, -1040, -508, 143990, 24780, 173110
48717, -573, -991, -478, 154560, -6580, 164010
48737, -593, -1031, -507, 135030, -32130, 171010
48757, -635, -1108, -558, 100100, -49140, 187670
48777, -672, -1166, -577, 66850, -48160, 190050
48797, -712, -1243, -606, 53830, -32620, 160090
48817, -756, -1329, -649, 46620, -31080, 128800
48837, -755, -1331, -661, 49840, -73570, 126420
48857, -690, -1214, -602, 64400, -139230, 135170
48877, -627, -1077, -528, 59010, -172270, 127120
48897, -594, -998, -488, 26040, -171220, 111790
48917, -586, -970, -483, -10920, -173390, 105560
48937, -577, -959, -486, -19600, -219590, 80920
48957, -570, -942, -476, 11200, -218960, 40180
48977, -550, -899, -442, 15190, -206640, -5950
48997, -529, -855, -413, 8400, -210490, -28770
49017, -508, -809, -395, -10360, -234430, -22750
49037, -489, -768, -382, -39340, -254030, -8820
49057, -472, -728, -371, -68740, -255500, -6650
49077, -452, -683, -350, -86590, -244300, -22330
49097, -422, -626, -319, -84350, -233870, -49980
49117, -389, -568, -288, -71260, -228830, -78050
49137, -357, -514, -260, -66220, -222040, -98070
49157, -333, -481, -240, -78960, -207900, -105910
49177, -324, -467, -233, -105210, -188650, -100870
49197, -329, -480, -239, -132300, -170660, -87500
49217, -341, -508, -253, -150640, -156520, -73500
49237, -358, -550, -277, -157710, -143080, -65100
49257, -379, -600, -300, -159600, -123550, -63700
49277, -412, -671, -335, -166880, -93660, -66780
49297, -447, -747, -364, -174650, -61810, -69440
49317, -487, -829, -401, -175210, -41020, -65170
49337, -535, -925, -444, -173180, -39550, -46690
49357, -588, -1033, -503, -165760, -61250, -12040
49377, -632, -1127, -561, -161840, -86450, 27440
49397, -648, -1167, -594, -172200, -85890, 51450
49417, -630, -1131, -571, -183610, -59850, 55510
49437, -605, -1082, -537, -179830, -32690, 51590
49457, -591, -1060, -529, -161210, -26740, 58800
49477, -600, -1084, -543, -141820, -31990, 79660
49497, -631, -1147, -582, -134820, -26530, 103040
49517, -667, -1211, -618, -141680, -3500, 119420
49537, -691, -1252, -638, -148120, 27580, 125020
49557, -701, -1265, -646, -145880, 53620, 124040
49577, -682, -1235, -626, -128030, 64540, 123900
49597, -648, -1166, -586, -99470, 63140, 128590
49617, -612, -1092, -551, -82600, 60900, 142520
49637, -597, -1054, -541, -85120, 71960, 158410
49657, -594, -1036, -535, -96530, 100030, 164500
49677, -594, -1024, -526, -96600, 133980, 155330
49697, -585, -1006, -513, -76020, 160020, 136710
49717, -573, -984, -496, -45220, 171360, 122220
49737, -555, -943, -475, -18830, 171430, 119420
49757, -531, -892, -450, -5670, 169820, 125440
49777, -500, -826, -418, -3710, 173740, 131670
49797, -465, -750, -382, -1050, 182700, 131600
49817, -433, -678, -347, 9170, 192010, 125580
49837, -398, -604, -307, 24850, 199080, 117670
49857, -368, -543, -275, 47040, 198800, 111790
49877, -340, -490, -250, 74060, 189840, 111440
49897, -321, -456, -236, 99470, 178150, 115850
49917, -312, -432, -230, 118370, 171290, 121940
49937, -314, -435, -232, 130410, 173880, 125720
49957, -329, -453, -243, 137830, 184870, 125860
49977, -346, -480, -255, 146020, 198030, 120820
49997, -367, -519, -274, 162680, 201320, 113680
50017, -389, -578, -297, 186130, 189630, 112000
50037, -430, -667, -332, 202720, 171080, 120120
50057, -507, -825, -409, 197050, 157150, 139440
50077, -601, -1005, -498, 169400, 147910, 166600
50097, -690, -1179, -587, 135520, 137340, 191380
50117, -743, -1290, -644, 108290, 122290, 203560
50137, -742, -1287, -630, 91770, 102270, 202230
50157, -687, -1186, -574, 80640, 75880, 197260
50177, -609, -1037, -483, 76720, 32340, 202090
50197, -596, -1016, -505, 70560, -23590, 225470
50217, -599, -1022, -518, 33460, -57120, 253610
50237, -619, -1067, -526, 16310, -37590, 229600
50257, -681, -1189, -579, 10990, 5040, 174370
50277, -716, -1251, -584, 6790, 19320, 139160
50297, -758, -1328, -640, 13370, -8750, 132580
50317, -775, -1349, -668, -16100, -65170, 164360
50337, -742, -1287, -637, -43330, -117810, 191240
50357, -680, -1168, -578, -58520, -131810, 175980
50377, -604, -1013, -488, -57120, -142100, 144550
50397, -553, -914, -438, -37660, -156310, 110180
50417, -518, -840, -402, -43260, -170870, 92610
50437, -499, -792, -375, -50680, -192010, 88970
50457, -504, -803, -394, -59570, -207690, 84280
50477, -511, -810, -403, -76160, -215950, 76160
50497, -504, -796, -394, -76580, -220010, 56280
50517, -494, -773, -381, -74130, -208250, 18340
50537, -475, -724, -347, -76930, -191940, -23450
50557, -451, -675, -319, -70420, -192710, -54530
50577, -439, -646, -312, -71330, -209860, -67130
50597, -422, -612, -304, -85190, -238350, -60480
50617, -397, -575, -292, -96880, -266070, -50540
50637, -382, -550, -288, -109550, -273840, -52220
50657, -370, -537, -277, -129710, -256270, -65940
50677, -361, -522, -262, -147980, -223370, -87500
50697, -356, -514, -255, -175490, -161210, -122710
50717, -359, -527, -262, -185990, -147210, -122710
