T [ms],AccX [mg],AccY [mg],AccZ [mg],GyroX [mdps],GyroY [mdps],GyroZ [mdps]
16022, 186, 233, 931, -36750, 19320, -140
16042, 192, 250, 980, -30240, 18620, -1610
16062, 193, 243, 957, -27650, 18830, -1750
16082, 155, 218, 959, -31710, 22680, -2730
16102, 140, 210, 986, -31080, 22750, -3360
16122, 145, 221, 1027, -26600, 17570, -3990
16142, 169, 244, 1057, -24920, 13510, -5670
16162, 172, 217, 1026, -28280, 14000, -8470
16182, 164, 185, 981, -35070, 20510, -11060
16202, 133, 156, 984, -36470, 20510, -10570
16222, 110, 145, 999, -31570, 17430, -8190
16242, 109, 148, 1026, -23870, 10220, -6090
16262, 128, 169, 1033, -17360, 6090, -6090
16282, 133, 176, 1039, -13720, 3290, -6370
16302, 128, 157, 1009, -15190, 7070, -8470
16322, 122, 148, 1001, -17010, 10990, -9240
16342, 116, 155, 1029, -14070, 6230, -7070
16362, 106, 156, 1046, -12530, 140, -5250
16382, 119, 144, 1024, -16170, -3570, -5460
16402, 143, 119, 963, -23940, -1890, -8680
16422, 132, 90, 932, -30450, 2450, -12040
16442, 112, 83, 953, -27650, 3710, -10360
16462, 109, 98, 983, -17780, -1050, -5600
16482, 129, 115, 1002, -9100, -7070, -3570
16502, 120, 118, 1005, -5040, -10010, -3360
16522, 123, 111, 995, -3150, -14770, -1190
16542, 100, 104, 989, -4200, -9170, -1890
16562, 140, 120, 980, -3850, -2450, -3570
16582, 144, 134, 1018, -770, -8960, -1890
16602, 167, 150, 1020, 3500, -16310, -840
16622, 169, 143, 1013, 2450, -12180, -1400
16642, 166, 125, 966, -630, -5950, -1330
16662, 155, 110, 950, -4060, 1680, -1750
16682, 144, 103, 964, -3710, 910, -140
16702, 156, 113, 988, -70, -1470, 2310
16722, 157, 105, 986, 3360, -3500, 3990
16742, 151, 93, 974, 2870, -3920, 4690
16762, 153, 95, 978, 630, -2590, 4410
16782, 150, 93, 979, 560, -1260, 3780
16802, 141, 89, 982, 1540, -2240, 3360
16822, 151, 112, 1018, 5110, -5810, 2870
16842, 155, 117, 1006, 5040, -4830, 1190
16862, 157, 128, 1022, 1470, -1820, -840
16882, 171, 122, 975, -3010, 4970, -3990
16902, 162, 115, 976, -3500, 4830, -3220
16922, 155, 111, 972, -980, 1400, -840
16942, 150, 117, 999, 1960, 490, 280
16962, 151, 122, 1017, 2450, -2520, 1120
16982, 153, 119, 999, 630, -2520, 1400
17002, 161, 113, 984, -1750, 630, 630
17022, 155, 113, 993, -1610, 210, 840
17042, 151, 108, 1003, -1050, -1890, 1680
17062, 151, 102, 1001, -2310, -1960, 1470
17082, 138, 100, 1016, -2870, -3780, 1610
17102, 157, 100, 992, -4130, -3080, 280
17122, 149, 88, 985, -6440, 1400, -2100
17142, 144, 94, 1008, -3710, 70, -1680
17162, 154, 110, 1032, -630, -3500, -1890
17182, 157, 101, 1005, -2170, -2660, -3990
17202, 167, 95, 979, -4690, -1120, -5460
17222, 171, 96, 961, -4060, 2030, -6790
17242, 148, 94, 969, -1960, 6650, -7770
17262, 133, 99, 983, 2240, 4900, -6720
17282, 154, 109, 964, 3780, 3430, -8400
17302, 146, 95, 938, 4410, 4970, -10500
17322, 134, 81, 908, 6790, 10290, -12180
17342, 126, 77, 931, 14210, 14000, -12530
17362, 135, 123, 980, 25760, 8330, -9170
17382, 156, 160, 1029, 35560, 490, -6230
17402, 137, 162, 1049, 35490, 4690, -5600
17422, 78, 137, 997, 31150, 5320, -6790
17442, 51, 101, 974, 27440, -420, -11970
17462, 107, 200, 964, 20720, -6440, -30940
17482, 171, 246, 1012, 28980, -5390, -36470
17502, 208, 314, 1051, 33180, -5320, -27090
17522, 153, 275, 988, 24010, 630, -18690
17542, 53, 196, 924, 8330, 3850, -8610
17562, 127, 328, 846, 4970, 17500, -8890
17582, 115, 272, 939, 4760, 33250, -10640
17602, 405, 341, 825, 7000, 28000, 1540
17622, 184, 375, 1010, 2170, 17360, -8120
17642, 87, 246, 962, -6300, -26810, -10920
17662, 97, 256, 906, -20440, -43400, -9310
17682, 68, 230, 970, -24990, -45850, -25830
17702, -105, 49, 926, -17990, -3220, -21280
17722, 143, 243, 1044, -7280, 64400, -140
17742, 166, 179, 925, 30100, 3570, 62370
17762, 196, 229, 974, 20860, -13930, 28420
17782, 92, 286, 1079, -1680, -9520, -1820
17802, 161, 142, 993, -26390, -6090, -2240
17822, 605, -437, 1047, -31150, 5460, -29540
17842, 251, 289, 1232, -20510, 2240, -35210
17862, -231, 392, 1231, 13160, 52010, -105210
17882, 290, 264, 1143, 30660, 9240, -62020
17902, 49, 291, 1110, 8890, -62160, 31080
17922, 89, 323, 1097, 55720, -10080, 12950
17942, 29, 294, 1057, 79800, 13650, -7000
17962, 28, 358, 1032, 90370, 26460, -18060
17982, 83, 393, 1057, 85470, 23590, -34790
18002, 172, 388, 1102, 87640, 24570, -40180
18022, 161, 396, 1069, 95410, 26670, -43960
18042, 79, 375, 982, 100590, 17290, -44380
18062, 52, 449, 988, 94150, -6790, -29120
18082, 34, 523, 1034, 81970, -27230, -18970
18102, 73, 504, 983, 77980, -33530, -15330
18122, 125, 441, 877, 91000, -28630, -22750
18142, 132, 426, 827, 101080, -15050, -39900
18162, 105, 502, 864, 94990, -11970, -46480
18182, 168, 545, 912, 75740, -26180, -38430
18202, 183, 470, 817, 63630, -47950, -28210
18222, 157, 540, 761, 68880, -52010, -30730
18242, 141, 413, 604, 73500, -51310, -51030
18262, 52, 504, 566, 65450, -60900, -58870
18282, 55, 573, 570, 45360, -70140, -68460
18302, 77, 552, 574, 36820, -55230, -73500
18322, 35, 611, 548, 34720, -31080, -70070
18342, -57, 606, 490, 36960, -20510, -72660
18362, -145, 671, 500, 33670, -21350, -76160
18382, -126, 717, 468, 21560, -26530, -77840
18402, -119, 681, 552, 21980, -23800, -68880
18422, -146, 786, 575, 14770, -11550, -64470
18442, -176, 843, 622, 11970, -4970, -60550
18462, -191, 767, 574, 12390, -5670, -56980
18482, -124, 734, 577, 6020, -11130, -36330
18502, -123, 723, 566, 7770, -9450, -32130
18522, -160, 760, 580, 1540, -8540, -28420
18542, -143, 755, 566, 4620, -2940, -39900
18562, -119, 692, 566, -280, 8120, -33110
18582, -96, 745, 664, -9100, 5460, -27790
18602, 47, 815, 797, -14840, -1750, -25270
18622, -6, 746, 764, -10430, -12880, -13790
18642, -102, 752, 686, 2590, -15260, -18900
18662, -202, 745, 640, 7210, -10080, -29750
18682, -190, 810, 632, 6720, -7910, -36400
18702, -154, 724, 625, 8960, 700, -44520
18722, -234, 702, 571, 10360, 20370, -61600
18742, -284, 720, 483, 10290, 30310, -70070
18762, -319, 709, 495, 2800, 28630, -62650
18782, -185, 688, 574, -10570, 25270, -44870
18802, -151, 695, 637, -18550, 17780, -30170
18822, -257, 658, 609, -12180, 29820, -40950
18842, -359, 667, 573, -9030, 34650, -46970
18862, -362, 598, 495, -10220, 38290, -50470
18882, -332, 594, 480, -16800, 41720, -52080
18902, -335, 584, 532, -30380, 40320, -53970
18922, -363, 588, 566, -42000, 38360, -54600
18942, -415, 556, 531, -40880, 51380, -61460
18962, -465, 568, 488, -35910, 73710, -69580
18982, -382, 548, 546, -40670, 88620, -70140
19002, -401, 487, 631, -52710, 89460, -67830
19022, -581, 509, 624, -57470, 85260, -68880
19042, -713, 523, 552, -56840, 82600, -70630
19062, -634, 468, 529, -62090, 76510, -67410
19082, -456, 304, 633, -68460, 78820, -60690
19102, -638, 390, 700, -79170, 73780, -69860
19122, -886, 457, 709, -78120, 74970, -78540
19142, -824, 462, 727, -71540, 75740, -76230
19162, -744, 419, 705, -65240, 66920, -67900
19182, -680, 389, 688, -52150, 72170, -75740
19202, -702, 345, 688, -43820, 66080, -76510
19222, -770, 309, 668, -43120, 47320, -61810
19242, -709, 221, 605, -36540, 38990, -52500
19262, -667, 202, 586, -28560, 49980, -69580
19282, -771, 235, 582, -29120, 55300, -91420
19302, -934, 156, 604, -27790, 57330, -94640
19322, -1094, 211, 537, -21210, 54110, -81970
19342, -873, 227, 415, -9870, 52570, -72660
19362, -949, 212, 539, -9800, 58590, -79520
19382, -858, 188, 563, -20370, 55650, -85680
19402, -1087, 149, 431, -7770, 64820, -82180
19422, -1196, 84, 359, 8750, 83650, -71610
19442, -846, -46, 481, 2380, 72940, -45360
19462, -812, 96, 618, -13720, 51380, -70700
19482, -993, 37, 559, -27370, 28000, -78120
19502, -1173, -1, 347, 1050, 27580, -60550
19522, -1088, -155, 238, 26810, 56350, -60550
19542, -998, -183, 223, 21140, 74200, -62090
19562, -987, -121, 319, 1330, 79100, -71750
19582, -976, -197, 393, -18690, 65450, -54600
19602, -1072, -61, 42, -44030, 46620, -24430
19622, -925, -133, 0, -47740, 78820, -43960
19642, -532, -137, 308, -1960, 50680, -181720
19662, 213, 192, -196, 34930, -135380, -416780
19682, 112, -29, -232, -69860, -236600, -493570
19702, -177, -261, -213, -196980, 115990, -396690
19722, -349, -257, -109, -213150, 480550, -373170
19742, -127, 10, 82, -95620, 621040, -480760
19762, -10, 20, 110, 90790, 468650, -508550
19782, -186, -381, -130, 48440, 239190, -276360
19802, -462, -1144, -607, -160650, 85540, -4550
19822, -655, -1998, -1924, -247660, 6160, 73990
19842, -883, -1998, -1193, 87850, -129710, -11760
19862, -600, -1996, -1741, 448980, -503650, -4900
19882, -410, -889, -627, -869120, -369390, -35490
19902, -325, -280, -181, -839860, -7560, -415730
19922, -257, -108, -204, -260610, -187740, -555170
19942, -187, -63, -254, 63560, -620970, -402920
19962, -171, -119, -275, 52080, -798490, -307580
19982, -163, -116, -230, -60130, -745220, -281960
20002, -201, -167, -219, -131040, -628040, -301490
20022, -207, -148, -189, -139230, -573720, -309330
20042, -279, -302, -297, -134820, -604170, -273980
20062, -400, -827, -679, -163870, -687680, -190190
20082, -680, -1998, -1529, -182280, -746410, -133490
20102, -646, -1998, -1520, -140980, -570920, -305410
20122, -721, -1998, -1288, 68390, -220360, -678650
20142, -464, -745, -661, 194530, -754740, -403970
20162, -469, -681, -755, -135450, -1103830, -183540
20182, -364, -506, -592, -390040, -1008420, -154980
20202, -284, -298, -412, -304990, -872270, -239190
20222, -186, -133, -270, -140840, -702450, -409290
20242, -87, -44, -177, -59360, -587930, -495460
20262, -109, -208, -246, -106260, -502180, -469630
20282, -187, -399, -308, -279790, -378420, -382480
20302, -271, -622, -407, -397950, -253330, -322210
20322, -339, -934, -592, -147910, -248360, -347620
20342, -375, -1450, -749, 49280, -293230, -385210
20362, -488, -1998, -1080, 33670, -276290, -400540
20382, -432, -1940, -1028, -69580, -300370, -372540
20402, -339, -1050, -556, -103040, -465780, -237090
20422, -306, -723, -507, -123480, -665630, -49840
20442, -231, -575, -488, -201670, -682920, 42630
20462, -176, -506, -439, -245280, -511280, 3500
20482, -123, -374, -306, -209300, -277900, -109340
20502, -114, -306, -232, -152390, -89950, -193340
20522, -126, -298, -205, -105630, 8260, -203490
20542, -142, -324, -207, -52360, 34090, -173250
20562, -165, -399, -247, 10430, 17920, -132790
20582, -171, -485, -296, 84770, -9170, -108080
20602, -182, -663, -408, 164850, -41650, -77420
20622, -233, -1025, -601, 235690, -52570, -36890
20642, -333, -1601, -804, 262500, 11620, -24570
20662, -494, -1998, -1211, 139510, 166110, -56560
20682, -390, -1925, -959, -41580, 319340, -124810
20702, -284, -1343, -666, 75250, 218330, -77910
20722, -245, -1008, -608, 121800, -46060, 134890
20742, -191, -734, -468, 146720, -61320, 170660
20762, -189, -657, -475, 188860, 27370, 140000
20782, -211, -635, -503, 238630, 136360, 100870
20802, -212, -588, -440, 315280, 264950, 39480
20822, -226, -698, -464, 334390, 383110, 12250
20842, -308, -1011, -638, 267400, 450030, 65940
20862, -312, -1309, -663, 227430, 484260, 126840
20882, -425, -1961, -989, 215740, 431550, 224210
20902, -481, -1998, -1186, 104580, 300370, 386120
20922, -374, -1403, -873, 57120, 292810, 390740
20942, -243, -825, -517, 169610, 324940, 325360
20962, -181, -546, -348, 332220, 278600, 342580
20982, -218, -512, -398, 287280, 281680, 411180
21002, -270, -523, -439, 108500, 388990, 449610
21022, -310, -560, -482, 19740, 492380, 452270
21042, -327, -562, -478, 17710, 577290, 413840
21062, -314, -560, -459, 72030, 643020, 350350
21082, -321, -654, -531, 157290, 640850, 336910
21102, -364, -777, -619, 204330, 637210, 357840
21122, -389, -817, -631, 192920, 699510, 360290
21142, -446, -915, -695, 172760, 756910, 371000
21162, -470, -922, -719, 119770, 802690, 376040
21182, -423, -760, -591, 103460, 856450, 326060
21202, -366, -618, -474, 159530, 834750, 314160
21222, -308, -465, -393, 202370, 744030, 371560
21242, -327, -475, -443, 209930, 637350, 466410
21262, -359, -512, -489, 139160, 609560, 524580
21282, -354, -468, -442, 93730, 662690, 493920
21302, -328, -409, -385, 132790, 701540, 432810
21322, -320, -414, -374, 190680, 682010, 415310
21342, -330, -477, -400, 199500, 649740, 426860
21362, -364, -625, -496, 175350, 633220, 430010
21382, -421, -817, -615, 151130, 648200, 401310
21402, -473, -1021, -717, 150500, 712600, 319340
21422, -552, -1300, -839, 171990, 793590, 221830
21442, -538, -1494, -806, 186550, 851830, 142030
21462, -462, -1516, -754, 196070, 831530, 91700
21482, -434, -1423, -752, 170240, 670390, 138880
21502, -407, -1268, -709, 107940, 498330, 199010
21522, -361, -1079, -606, 92400, 430850, 162260
21542, -307, -945, -522, 170660, 379470, 94080
21562, -283, -934, -496, 294630, 269080, 72310
21582, -307, -1054, -549, 347060, 173880, 70140
21602, -347, -1231, -607, 298340, 154000, 41930
21622, -371, -1396, -634, 205380, 182560, -21770
21642, -390, -1538, -723, 117530, 175980, -76230
21662, -417, -1564, -797, 79590, 44520, -61880
21682, -393, -1371, -713, 118650, -150080, -29120
21702, -364, -1174, -595, 185360, -261520, -75250
21722, -345, -1022, -503, 182910, -294700, -163310
21742, -351, -943, -493, 98980, -306880, -238910
21762, -370, -913, -522, -9520, -347620, -277760
21782, -394, -911, -548, -78680, -409780, -305620
21802, -417, -926, -578, -90370, -467810, -350910
21822, -435, -920, -567, -72240, -519610, -409990
21842, -446, -877, -561, -79660, -554400, -476070
21862, -448, -773, -551, -142380, -588700, -525280
21882, -512, -756, -644, -226310, -665910, -522690
21902, -494, -657, -664, -295470, -808080, -448840
21922, -458, -556, -617, -308350, -927570, -397600
21942, -435, -460, -563, -321370, -932680, -420560
21962, -392, -313, -467, -335300, -891800, -458220
21982, -402, -315, -485, -326760, -875490, -476840
22002, -407, -334, -508, -360710, -874090, -459270
22022, -372, -303, -484, -374430, -881160, -435050
22042, -329, -274, -442, -342790, -859880, -456750
22062, -292, -282, -412, -315210, -799190, -499100
22082, -281, -309, -367, -345310, -616980, -549640
22102, -309, -400, -379, -360850, -555870, -549500
22122, -355, -534, -452, -329630, -587650, -505820
22142, -397, -725, -570, -250740, -693210, -430500
22162, -416, -912, -661, -180460, -789600, -363510
22182, -455, -1175, -788, -166390, -831460, -314020
22202, -506, -1509, -997, -223510, -821380, -281120
22222, -533, -1663, -1098, -196350, -805770, -277550
22242, -515, -1492, -995, -62720, -883050, -228270
22262, -454, -1306, -930, -14630, -918120, -202160
22282, -422, -1224, -893, -43330, -828170, -242970
22302, -393, -1134, -811, 7560, -706440, -322210
22322, -369, -1088, -751, 73360, -601230, -398860
22342, -287, -963, -537, 113540, -553000, -423150
22362, -412, -1404, -955, -23800, -529200, -360430
22382, -434, -1472, -968, -3010, -515970, -323120
22402, -359, -1372, -739, 143570, -394870, -443450
22422, -334, -1353, -692, 86380, -303170, -481040
22442, -334, -1315, -749, -59990, -347760, -367150
22462, -331, -1245, -787, -130690, -415730, -246610
22482, -264, -1016, -604, -102620, -326480, -276710
22502, -227, -889, -491, -75110, -166460, -352450
22522, -211, -855, -471, -62440, -126630, -312270
22542, -192, -851, -480, -47180, -132720, -233240
22562, -183, -860, -485, -67130, -92260, -181720
22582, -179, -863, -488, -75460, -29400, -136150
22602, -187, -869, -487, -77140, 40670, -89180
22622, -183, -855, -494, -50960, 93450, -37030
22642, -181, -814, -503, 9730, 117530, 28000
22662, -183, -728, -479, 57890, 186200, 64540
22682, -179, -603, -417, 81830, 306250, 72660
22702, -182, -519, -387, 102830, 403200, 107170
22722, -196, -462, -382, 116760, 455560, 182910
22742, -216, -417, -381, 127050, 495250, 265230
22762, -240, -378, -395, 134820, 541310, 335300
22782, -276, -364, -419, 138460, 596890, 392350
22802, -313, -364, -447, 139720, 663460, 430360
22822, -344, -355, -468, 153020, 728770, 452550
22842, -384, -387, -513, 174650, 787710, 467460
22862, -439, -463, -597, 190050, 847210, 477680
22882, -507, -570, -710, 207130, 919240, 470120
22902, -567, -672, -814, 246400, 1006250, 436870
22922, -603, -793, -894, 318360, 1089690, 396900
22942, -668, -1054, -1042, 388220, 1139530, 397180
22962, -699, -1305, -1170, 411180, 1158710, 438550
22982, -657, -1244, -1091, 425740, 1147790, 488810
23002, -625, -1059, -973, 427980, 1092420, 566860
23022, -600, -897, -857, 367220, 1036000, 653240
23042, -589, -836, -772, 282660, 995890, 712390
23062, -612, -957, -808, 183400, 956550, 751940
23082, -624, -1153, -892, 78960, 913290, 768320
23102, -618, -1326, -938, 34440, 881650, 724850
23122, -636, -1539, -1019, 58100, 860510, 636300
23142, -659, -1680, -1081, 72030, 849240, 543970
23162, -630, -1570, -974, 61110, 872340, 425880
23182, -555, -1346, -771, 70000, 901670, 284200
23202, -489, -1225, -653, 81270, 872690, 183330
23222, -433, -1165, -588, 59080, 788970, 132860
23242, -409, -1214, -617, 17500, 670950, 111160
23262, -398, -1246, -648, 12180, 522060, 104720
23282, -391, -1221, -642, 69370, 375130, 85330
23302, -333, -1134, -484, 185570, 282310, 7280
23322, -353, -1215, -515, 206920, 256060, -88830
23342, -343, -1188, -525, 86730, 187880, -95410
23362, -324, -1067, -483, 6230, 87500, -103810
23382, -298, -914, -419, -23800, -5740, -131810
23402, -271, -748, -341, -22260, -101220, -161700
23422, -270, -673, -335, -24150, -199080, -177380
23442, -265, -596, -335, -51380, -284760, -185570
23462, -228, -473, -278, -66430, -361900, -196070
23482, -225, -409, -248, -89880, -385980, -242130
23502, -234, -363, -241, -153230, -384930, -277480
23522, -250, -343, -267, -208810, -418950, -278950
23542, -258, -339, -304, -225750, -496160, -258370
23562, -261, -348, -345, -214130, -580790, -231980
23582, -257, -359, -364, -189280, -626640, -231700
23602, -254, -361, -366, -150430, -627270, -266280
23622, -275, -402, -365, -111020, -588210, -327670
23642, -311, -473, -389, -84140, -531300, -396410
23662, -381, -614, -456, -57330, -494970, -454860
23682, -432, -770, -541, -25830, -489790, -506590
23702, -480, -1065, -697, 25690, -532000, -550410
23722, -566, -1523, -891, 60060, -620130, -563220
23742, -662, -1998, -1234, -14420, -675780, -562590
23762, -615, -1718, -1077, -194880, -673330, -588700
23782, -580, -1212, -901, -293090, -729960, -586040
23802, -504, -889, -789, -367080, -833490, -523320
23822, -422, -781, -742, -417760, -923510, -440860
23842, -419, -921, -760, -489580, -815430, -409640
23862, -495, -1194, -876, -431270, -774620, -387660
23882, -552, -1458, -1011, -260890, -863240, -321440
23902, -572, -1680, -1116, -116060, -955500, -277270
23922, -597, -1895, -1273, -108500, -965790, -262080
23942, -567, -1768, -1207, -112280, -925540, -276570
23962, -504, -1370, -971, -19670, -908110, -296800
23982, -422, -1058, -806, 45500, -910630, -297500
24002, -368, -928, -743, 14140, -845390, -308490
24022, -317, -858, -666, -23940, -700840, -357210
24042, -290, -816, -584, -25830, -543690, -413280
24062, -272, -815, -531, -11060, -447510, -422100
24082, -262, -867, -547, -2730, -427000, -372960
24102, -241, -922, -583, -4060, -426580, -304640
24122, -214, -917, -575, -12600, -382270, -252980
24142, -187, -834, -494, -29330, -269080, -236110
24162, -164, -730, -412, -47460, -156030, -212590
24182, -148, -670, -396, -51170, -106470, -145180
24202, -135, -614, -381, -48860, -85330, -57400
24222, -122, -555, -365, -31640, -35630, 8120
24242, -116, -483, -331, -2940, 49560, 49000
24262, -118, -417, -301, 25130, 143780, 88340
24282, -126, -366, -287, 53060, 224420, 138180
24302, -138, -335, -286, 79940, 284760, 200690
24322, -156, -321, -304, 102480, 339080, 264810
24342, -191, -349, -350, 116200, 404250, 319340
24362, -240, -394, -411, 125440, 493710, 348810
24382, -288, -438, -459, 137200, 605010, 350070
24402, -350, -539, -532, 146510, 716380, 345660
24422, -429, -729, -648, 141050, 817530, 347340
24442, -532, -1045, -821, 120820, 911540, 346220
24462, -631, -1467, -1050, 96600, 997640, 328860
24482, -644, -1761, -1156, 104650, 1041460, 303940
24502, -611, -1653, -1130, 158690, 992600, 313040
24522, -546, -1237, -941, 207480, 925680, 331170
24542, -468, -892, -757, 270690, 898450, 325220
24562, -408, -713, -653, 343770, 857220, 349230
24582, -422, -783, -713, 377860, 799680, 413770
24602, -466, -967, -824, 375690, 767620, 472710
24622, -504, -1259, -933, 403550, 768810, 491470
24642, -549, -1626, -1026, 427000, 773640, 501970
24662, -574, -1779, -1056, 358890, 758940, 534170
24682, -537, -1530, -933, 206220, 718550, 575400
24702, -494, -1264, -777, 81900, 677460, 583800
24722, -449, -1118, -667, 18900, 637140, 561890
24742, -426, -1107, -635, -32410, 604800, 512540
24762, -415, -1192, -668, -63140, 550480, 466340
24782, -412, -1288, -707, -51520, 477890, 424830
24802, -418, -1365, -738, -23100, 435400, 361060
24822, -385, -1268, -645, -14700, 438830, 268800
24842, -373, -1185, -572, -23170, 453740, 166250
24862, -329, -1052, -461, -93800, 467740, 81340
24882, -282, -918, -404, -96250, 353290, 72940
24902, -268, -864, -425, -56000, 143990, 130830
24922, -244, -756, -380, -106470, 73570, 115080
24942, -217, -649, -323, -120540, 66990, 50750
24962, -217, -610, -302, -108080, 53760, -700
24982, -208, -563, -273, -76020, 17080, -31220
25002, -183, -493, -235, -37800, -23870, -70420
25022, -169, -444, -221, -11970, -83510, -89320
25042, -177, -421, -204, -41580, -121660, -95200
25062, -190, -416, -207, -82320, -143920, -105560
25082, -199, -442, -243, -75950, -211540, -100170
25102, -226, -529, -318, -50610, -305130, -82810
25122, -260, -659, -424, -29890, -371980, -78190
25142, -287, -758, -484, 9240, -389830, -115360
25162, -305, -836, -477, 74270, -348460, -212800
25182, -346, -966, -481, 116200, -275520, -329630
25202, -365, -1075, -530, 100730, -247660, -392700
25222, -429, -1251, -713, 50750, -325500, -382900
25242, -459, -1294, -797, 17010, -499870, -305900
25262, -430, -1177, -712, 13580, -596750, -299320
25282, -401, -1061, -616, -6510, -551950, -402990
25302, -407, -1058, -612, -95900, -472710, -497420
25322, -436, -1141, -672, -214130, -437920, -529200
25342, -483, -1289, -783, -275940, -463610, -525000
25362, -514, -1462, -885, -267680, -533050, -508340
25382, -504, -1550, -874, -244090, -583450, -513660
25402, -527, -1554, -938, -256340, -603960, -529830
25422, -579, -1516, -1054, -336070, -687750, -463540
25442, -526, -1344, -999, -404460, -849940, -315560
25462, -439, -1152, -854, -380660, -952420, -216020
25482, -416, -1088, -796, -350840, -893060, -229110
25502, -422, -1102, -789, -335300, -789110, -260610
25522, -426, -1148, -816, -268590, -757540, -252910
25542, -402, -1148, -802, -158340, -779520, -227500
25562, -365, -1100, -750, -46340, -787990, -223370
25582, -331, -1034, -690, 7070, -744310, -245210
25602, -290, -898, -587, 0, -619990, -249690
25622, -260, -806, -537, -21000, -580860, -213570
25642, -233, -740, -509, -42630, -533260, -175560
25662, -200, -672, -467, -38220, -452760, -165270
25682, -166, -598, -407, -18130, -341740, -178850
25702, -142, -546, -358, -5180, -223160, -187600
25722, -125, -488, -300, 1890, -126280, -169540
25742, -114, -454, -270, -490, -66570, -115990
25762, -113, -454, -275, -16870, -33110, -35770
25782, -121, -465, -291, -26390, -3500, 45990
25802, -129, -486, -319, -13090, 40740, 105910
25822, -133, -485, -331, 21140, 106890, 139160
25842, -146, -495, -347, 52360, 195440, 156730
25862, -179, -540, -383, 58450, 300720, 170940
25882, -223, -605, -430, 52290, 409640, 183260
25902, -275, -692, -478, 49910, 512540, 188650
25922, -312, -779, -513, 58940, 593740, 191170
25942, -345, -901, -561, 65520, 641830, 204050
25962, -391, -1072, -663, 41720, 676270, 220150
25982, -445, -1260, -787, 3080, 718200, 217350
26002, -474, -1367, -853, 9310, 746550, 196490
26022, -455, -1315, -808, 99050, 737450, 169820
26042, -420, -1231, -767, 199570, 692510, 166810
26062, -426, -1215, -788, 231700, 648130, 189420
26082, -435, -1210, -807, 246540, 644770, 188510
26102, -430, -1236, -811, 278320, 664580, 166180
26122, -421, -1338, -826, 317870, 661710, 162400
26142, -414, -1476, -846, 341810, 615580, 197120
26162, -415, -1601, -887, 333270, 536550, 258440
26182, -425, -1605, -916, 296450, 449190, 325990
26202, -394, -1443, -825, 258160, 419160, 338100
26222, -349, -1254, -691, 257040, 407120, 318710
26242, -320, -1141, -603, 259980, 358400, 329420
26262, -327, -1145, -620, 219870, 295820, 365190
26282, -329, -1156, -636, 156730, 260470, 384440
26302, -324, -1139, -610, 119630, 264180, 359660
26322, -323, -1121, -585, 105630, 272580, 321930
26342, -313, -1092, -554, 96460, 257600, 297710
26362, -310, -1046, -500, 80710, 224000, 283990
26382, -291, -1007, -485, 47810, 182210, 275030
26402, -302, -1037, -545, -5740, 138180, 269220
26422, -286, -966, -509, -38640, 116060, 247240
26442, -252, -840, -412, -7980, 125650, 179060
26462, -235, -751, -357, 16100, 121940, 125650
26482, -220, -672, -325, 1540, 89110, 109340
26502, -203, -609, -306, -18340, 45500, 101640
26522, -202, -598, -314, -27440, -140, 98630
26542, -190, -548, -297, -33180, -28070, 87920
26562, -174, -502, -275, -19950, -33460, 55510
26582, -175, -482, -269, -22400, -17150, 14700
26602, -179, -477, -270, -17290, -2800, -22960
26622, -183, -473, -268, 7420, 2030, -61670
26642, -189, -481, -269, 42700, 2030, -102130
26662, -202, -511, -275, 76300, -7070, -135870
26682, -217, -579, -309, 95060, -24570, -161420
26702, -244, -728, -378, 99330, -46550, -184240
26722, -298, -973, -498, 88340, -62650, -206360
26742, -369, -1247, -636, 51030, -47600, -242830
26762, -381, -1384, -622, 45010, -40390, -291410
26782, -411, -1616, -780, 79940, -101080, -321230
26802, -441, -1681, -855, 27720, -221200, -285810
26822, -442, -1582, -828, -100240, -252140, -300230
26842, -414, -1324, -686, -178640, -227500, -375690
26862, -386, -1136, -600, -135590, -295610, -404110
26882, -371, -1079, -601, -129430, -393120, -390810
26902, -376, -1152, -645, -208950, -429520, -385560
26922, -416, -1368, -750, -301700, -399070, -413630
26942, -462, -1547, -853, -332430, -402150, -420560
26962, -464, -1548, -910, -299880, -493150, -375830
26982, -419, -1360, -840, -298200, -601020, -313250
27002, -414, -1238, -793, -337610, -630140, -286720
27022, -406, -1143, -745, -361620, -631820, -258790
27042, -389, -1072, -718, -304850, -682570, -205870
27062, -359, -1022, -701, -235410, -734300, -153650
27082, -324, -977, -664, -206150, -729260, -126350
27102, -310, -961, -634, -198100, -655340, -141120
27122, -295, -940, -606, -171570, -577570, -159530
27142, -272, -890, -558, -107800, -538930, -157920
27162, -238, -828, -508, -43400, -515760, -147070
27182, -210, -772, -480, -12180, -481390, -132790
27202, -185, -697, -436, -11550, -423570, -119070
27222, -159, -614, -376, -13860, -350980, -103250
27242, -136, -533, -325, -4270, -276290, -84770
27262, -121, -478, -296, -1050, -203350, -58870
27282, -119, -454, -295, -15330, -132020, -21210
27302, -114, -423, -287, -24290, -62720, 21910
27322, -117, -391, -279, -12530, 10500, 56630
27342, -125, -369, -275, 30520, 188160, 98630
27362, -152, -386, -293, 46130, 282310, 116340
27382, -184, -427, -327, 60970, 368830, 132650
27402, -226, -493, -383, 84280, 447580, 141260
27422, -270, -584, -448, 116620, 530250, 133980
27442, -316, -721, -532, 156030, 613130, 120890
27462, -384, -983, -673, 190050, 686560, 118720
27482, -489, -1403, -880, 192990, 758870, 121310
27502, -522, -1742, -988, 178710, 811720, 115710
27522, -478, -1756, -1010, 181020, 747180, 163520
27542, -418, -1391, -867, 218890, 610960, 250950
27562, -357, -1040, -697, 267330, 552790, 282940
27582, -309, -827, -575, 311500, 529130, 302050
27602, -312, -831, -584, 335860, 490630, 348250
27622, -347, -979, -683, 336140, 470750, 384440
27642, -389, -1200, -797, 353430, 494410, 372400
27662, -423, -1493, -851, 375410, 540120, 338310
27682, -445, -1779, -876, 327320, 548940, 342510
27702, -477, -1846, -968, 165480, 475300, 414330
27722, -434, -1581, -844, 20440, 394450, 456960
27742, -382, -1312, -678, 5250, 331310, 441840
27762, -348, -1167, -599, 16380, 262010, 426860
27782, -330, -1116, -594, 15190, 203980, 411460
27802, -312, -1074, -573, 14140, 187390, 370160
27822, -304, -1048, -537, 12670, 209370, 303170
27842, -315, -1092, -535, -21770, 246120, 233800
27862, -326, -1146, -538, -82600, 264320, 178150
27882, -324, -1158, -536, -106820, 216230, 152390
27902, -315, -1124, -536, -93660, 108150, 157990
27922, -282, -1001, -489, -73780, 7070, 157710
27942, -249, -864, -427, -71050, -40880, 129220
27962, -242, -781, -402, -103320, -49700, 95480
27982, -221, -681, -350, -112210, -48720, 52710
28002, -195, -560, -277, -91840, -50470, 1190
28022, -179, -468, -236, -91560, -66500, -26880
28042, -164, -409, -227, -102550, -110460, -23450
28062, -169, -414, -251, -105210, -157640, -15330
28082, -165, -406, -257, -99260, -176680, -28840
28102, -161, -395, -256, -64610, -174440, -67200
28122, -163, -381, -249, -16730, -159880, -117670
28142, -173, -397, -256, 20650, -137900, -167650
28162, -192, -444, -272, 45080, -118090, -211470
28182, -212, -527, -299, 59640, -101640, -252000
28202, -251, -686, -358, 57050, -86800, -285460
28222, -313, -934, -457, 33670, -73710, -313180
28242, -377, -1332, -642, 15050, -86800, -333970
28262, -460, -1794, -870, 13160, -150710, -337050
28282, -510, -1998, -1000, -14350, -234500, -332500
28302, -470, -1718, -870, -96320, -294280, -348950
28322, -409, -1275, -682, -166600, -361690, -362810
28342, -375, -1024, -593, -234430, -417130, -367360
28362, -362, -928, -564, -286300, -454090, -365680
28382, -347, -940, -571, -307300, -476770, -367780
28402, -365, -1072, -631, -321440, -469000, -387520
28422, -404, -1320, -756, -325990, -474250, -385000
28442, -467, -1648, -952, -328510, -519260, -346990
28462, -503, -1832, -1075, -332640, -590030, -287350
28482, -476, -1625, -980, -319760, -648620, -239960
28502, -433, -1303, -823, -273910, -697340, -204540
28522, -401, -1102, -740, -227920, -744520, -161630
28542, -365, -994, -698, -200620, -777980, -111370
28562, -328, -952, -673, -171150, -763980, -88760
28582, -301, -953, -645, -133070, -699930, -102550
28602, -280, -959, -612, -83300, -611380, -136150
28622, -266, -970, -587, -38290, -523740, -167370
28642, -256, -984, -580, -14000, -455770, -175770
28662, -244, -968, -573, -4550, -410620, -158760
28682, -220, -888, -524, 7350, -373030, -130690
28702, -190, -788, -469, 32410, -327670, -106890
28722, -158, -660, -387, 55160, -273490, -85120
28742, -132, -561, -332, 57050, -215880, -54600
28762, -123, -508, -317, 36470, -150360, -16730
28782, -120, -460, -299, 6720, -72100, 20860
28802, -122, -422, -286, -13160, 14770, 52220
28822, -131, -401, -280, -11270, 100730, 76720
28842, -135, -369, -269, 6860, 177380, 100520
28862, -148, -365, -281, 33670, 242270, 127820
28882, -175, -388, -317, 56490, 304570, 157220
28902, -216, -441, -365, 71120, 375480, 182490
28922, -258, -511, -416, 86310, 458430, 192850
28942, -305, -622, -488, 111230, 543830, 188720
28962, -367, -820, -609, 145250, 622160, 179760
28982, -451, -1119, -772, 176470, 696570, 169190
29002, -512, -1452, -914, 196700, 776370, 150570
29022, -500, -1630, -960, 212030, 840420, 132440
29042, -461, -1486, -907, 224140, 827540, 156730
29062, -406, -1182, -781, 222670, 730590, 237020
29082, -353, -933, -648, 232820, 645820, 299670
29102, -332, -834, -586, 310310, 550830, 366870
29122, -340, -898, -632, 333480, 506800, 406980
29142, -371, -1081, -740, 350000, 496160, 419090
29162, -415, -1346, -842, 360010, 529340, 396970
29182, -451, -1617, -882, 329350, 570500, 376180
29202, -470, -1734, -894, 214340, 565390, 393610
29222, -452, -1576, -829, 54250, 506660, 433020
29242, -409, -1341, -698, -25410, 420420, 453460
29262, -377, -1213, -637, -37170, 329840, 450800
29282, -355, -1182, -636, -29610, 261800, 426720
29302, -342, -1185, -635, -9100, 241360, 370230
29322, -338, -1186, -606, 5950, 262430, 290500
29342, -335, -1184, -578, -12320, 288750, 216020
29362, -331, -1175, -549, -66360, 292110, 162750
29382, -324, -1145, -525, -120260, 245420, 139090
29402, -315, -1097, -520, -144830, 144060, 144200
29422, -295, -1026, -509, -140630, 39550, 144410
29442, -273, -926, -473, -117040, -25550, 118580
29462, -241, -797, -401, -83790, -48930, 68600
29482, -215, -680, -336, -66080, -49490, 13230
29502, -200, -596, -290, -79030, -49560, -26460
29522, -196, -547, -269, -110600, -63420, -46270
29542, -200, -525, -268, -133280, -97440, -53900
29562, -199, -488, -260, -121030, -150150, -61810
29582, -193, -465, -266, -93310, -204540, -73080
29602, -193, -461, -282, -65730, -248290, -85050
29622, -193, -480, -306, -43750, -263340, -111440
29642, -201, -506, -315, -23170, -244020, -160300
29662, -217, -550, -327, -8050, -208460, -213780
29682, -248, -627, -350, -6930, -172620, -263200
29702, -266, -697, -362, -3220, -155890, -308280
29722, -288, -819, -402, -2380, -174720, -334180
29742, -340, -1047, -532, -23030, -228130, -327040
29762, -387, -1259, -670, -53830, -286440, -319340
29782, -409, -1375, -709, -80920, -327810, -337260
29802, -401, -1354, -684, -108220, -353570, -367920
29822, -405, -1312, -685, -188370, -361200, -390810
29842, -402, -1222, -671, -271530, -384580, -394240
29862, -400, -1146, -666, -299670, -447580, -373170
29882, -377, -1048, -624, -298270, -508830, -353990
29902, -368, -1057, -636, -294280, -547470, -343770
29922, -393, -1205, -728, -329980, -568890, -319200
29942, -431, -1413, -841, -367360, -582750, -284900
29962, -482, -1617, -983, -356300, -613830, -247240
29982, -446, -1451, -880, -316820, -672280, -199710
30002, -420, -1268, -765, -225680, -715890, -182140
30022, -439, -1448, -1029, -191240, -724850, -175350
30042, -299, -991, -543, -163730, -674380, -193270
30062, -417, -1111, -689, -97370, -562380, -273420
30082, -389, -1121, -766, -37310, -748440, -105280
30102, -297, -1035, -709, 48090, -865620, -10290
30122, -236, -919, -590, -6440, -676410, -109970
30142, -222, -870, -516, -58940, -465220, -193900
30162, -265, -919, -547, -111160, -311500, -217420
30182, -234, -824, -498, -76160, -281610, -182420
30202, -163, -711, -412, 78190, -328300, -154070
30222, -162, -727, -439, 128730, -321160, -125510
30242, -151, -675, -407, 80780, -253890, -72870
30262, -130, -577, -327, 79030, -168000, -38360
30282, -133, -545, -303, 60410, -56350, -28630
30302, -146, -557, -328, -2870, 42000, 2660
30322, -142, -539, -344, -29120, 80710, 66150
30342, -146, -523, -356, -2100, 115850, 111160
30362, -163, -500, -341, 13440, 203910, 123410
30382, -178, -474, -331, 24430, 306180, 134190
30402, -191, -461, -332, 58940, 365400, 171360
30422, -230, -517, -387, 84280, 404600, 217630
30442, -272, -623, -458, 80570, 455490, 250810
30462, -326, -746, -564, 80080, 519680, 257810
30482, -384, -849, -637, 108850, 595140, 236250
30502, -427, -981, -687, 163660, 698740, 178920
30522, -462, -1170, -762, 198800, 808220, 123550
30542, -459, -1322, -813, 194110, 864150, 123270
30562, -456, -1381, -866, 198450, 826560, 181440
30582, -443, -1282, -854, 204820, 735560, 262570
30602, -408, -1112, -763, 210350, 692160, 295330
30622, -363, -981, -656, 270760, 669620, 299390
30642, -356, -1006, -677, 337330, 615650, 331450
30662, -393, -1171, -788, 362530, 534940, 397040
30682, -412, -1264, -804, 345870, 507360, 432040
30702, -424, -1356, -779, 325150, 560140, 400820
30722, -419, -1382, -736, 287490, 596330, 382550
30742, -428, -1411, -761, 196840, 572040, 406000
30762, -417, -1383, -737, 82880, 499590, 450450
30782, -400, -1341, -710, 21840, 421120, 469490
30802, -384, -1308, -696, 11900, 362950, 450870
30822, -348, -1202, -624, -7140, 336000, 404110
30842, -328, -1121, -567, 840, 316680, 343630
30862, -312, -1053, -517, -21000, 273910, 253330
30882, -310, -1029, -507, -80990, 265440, 209860
30902, -310, -1009, -480, -134680, 247100, 166250
30922, -291, -964, -463, -137830, 182210, 137970
30942, -285, -935, -460, -124250, 106540, 117320
30962, -261, -846, -412, -73850, 30800, 92190
30982, -210, -705, -332, -5670, -45710, 69580
31002, -222, -696, -351, -43680, -59710, 42840
31022, -226, -691, -361, -91420, -50260, 8750
31042, -210, -630, -318, -84280, -41440, -48720
31062, -208, -581, -271, -83230, -40320, -96810
31082, -212, -544, -254, -91210, -81620, -110460
31102, -211, -525, -277, -76440, -178080, -92610
31122, -222, -566, -333, -59640, -270060, -72520
31142, -235, -609, -377, -41440, -301350, -93170
31162, -219, -566, -351, 6230, -286300, -160510
31182, -216, -549, -315, 27370, -242130, -238210
31202, -238, -593, -323, -8820, -202090, -284830
31222, -259, -668, -357, -41580, -206220, -301000
31242, -286, -795, -424, -59850, -243110, -301420
31262, -344, -990, -538, -76230, -271740, -312340
31282, -376, -1144, -604, -77000, -275380, -359870
31302, -408, -1312, -672, -56910, -294700, -408870
31322, -417, -1392, -684, -63700, -348530, -422170
31342, -418, -1394, -715, -143920, -404950, -414890
31362, -458, -1435, -865, -295260, -467530, -371490
31382, -430, -1252, -758, -354270, -516670, -347760
31402, -386, -1073, -645, -272650, -560070, -360220
31422, -348, -1005, -625, -262150, -589680, -353080
31442, -375, -1113, -702, -349790, -578690, -329490
31462, -431, -1354, -867, -398440, -597940, -269780
31482, -435, -1469, -898, -337190, -640920, -222950
31502, -425, -1431, -847, -233310, -659050, -217840
31522, -410, -1346, -839, -180390, -687120, -191590
31542, -383, -1217, -775, -190470, -700420, -152880
31562, -362, -1117, -724, -169820, -690900, -129010
31582, -330, -1040, -688, -115290, -682010, -107940
31602, -292, -958, -628, -56770, -652330, -104020
31622, -249, -872, -560, -10290, -585620, -125580
31642, -225, -839, -522, -1330, -495880, -146510
31662, -220, -845, -510, -15750, -403480, -148890
31682, -214, -856, -501, -12390, -331450, -134260
31702, -204, -854, -495, 12880, -284270, -107520
31722, -186, -814, -465, 43190, -244510, -75950
31742, -168, -759, -438, 59500, -190120, -48580
31762, -155, -694, -402, 60480, -121590, -20720
31782, -146, -625, -365, 50400, -39130, 5460
31802, -142, -562, -333, 36120, 45640, 32550
31822, -144, -516, -323, 24500, 113890, 70630
31842, -155, -493, -328, 16660, 168210, 116130
31862, -168, -473, -330, 17710, 224700, 153860
31882, -177, -455, -334, 35210, 286510, 177170
31902, -194, -448, -346, 63910, 349300, 192850
31922, -225, -487, -387, 89250, 414540, 206640
31942, -265, -557, -447, 107030, 488390, 211470
31962, -318, -673, -527, 131320, 569450, 201530
31982, -372, -832, -623, 169470, 648060, 183540
32002, -433, -1060, -742, 212450, 718060, 168560
32022, -479, -1318, -853, 241150, 779450, 160720
32042, -473, -1440, -886, 245700, 817740, 167020
32062, -436, -1331, -835, 240310, 794360, 210070
32082, -401, -1129, -750, 240940, 710290, 288610
32102, -369, -950, -656, 250810, 638610, 350280
32122, -348, -873, -604, 270060, 600110, 381850
32142, -348, -923, -627, 296520, 554470, 418390
32162, -376, -1088, -719, 314020, 509670, 455350
32182, -418, -1317, -818, 311570, 502320, 463610
32202, -437, -1447, -807, 297500, 537390, 436590
32222, -452, -1517, -804, 250810, 574910, 409710
32242, -451, -1475, -786, 134750, 566930, 419090
32262, -412, -1334, -703, 4060, 518910, 436450
32282, -379, -1214, -627, -57400, 455840, 423150
32302, -355, -1142, -596, -69860, 374500, 404460
32322, -337, -1122, -599, -63420, 299880, 378210
32342, -331, -1114, -581, -47530, 265580, 326550
32362, -324, -1116, -555, -28910, 270340, 251160
32382, -321, -1099, -514, -29890, 287140, 173320
32402, -306, -1050, -481, -74130, 288540, 114380
32422, -298, -1013, -478, -125930, 237510, 91280
32442, -286, -962, -468, -147980, 138040, 95830
32462, -265, -877, -429, -133980, 41370, 88760
32482, -237, -774, -380, -97720, -28630, 59710
32502, -219, -684, -339, -70980, -73220, 25200
32522, -210, -616, -307, -72450, -95690, -7700
32542, -198, -563, -287, -86520, -108570, -36890
32562, -206, -551, -279, -105560, -117040, -66990
32582, -214, -537, -276, -128590, -124950, -95760
32602, -214, -518, -286, -122850, -158900, -116900
32622, -217, -520, -312, -40530, -288470, -133910
32642, -219, -529, -330, -12390, -321860, -154140
32662, -220, -542, -340, 1470, -313880, -199430
32682, -234, -574, -345, -3850, -281960, -252700
32702, -264, -658, -371, -25550, -247730, -302400
32722, -284, -749, -395, -42210, -238840, -339850
32742, -325, -924, -483, -51730, -278950, -344960
32762, -381, -1150, -628, -62510, -349160, -330260
32782, -410, -1289, -699, -64470, -391510, -349860
32802, -398, -1296, -656, -97930, -380380, -411320
32822, -418, -1338, -717, -195580, -373870, -441140
32842, -432, -1272, -723, -233590, -456540, -403970
32862, -397, -1111, -660, -222810, -572320, -350350
32882, -366, -1013, -644, -293440, -599760, -330260
32902, -362, -1012, -659, -380730, -573440, -321090
32922, -368, -1093, -703, -384650, -565740, -304780
32942, -375, -1178, -707, -332640, -570010, -290920
32962, -419, -1363, -806, -292040, -591640, -260680
32982, -447, -1532, -934, -263130, -652330, -199920
33002, -424, -1487, -900, -217770, -681380, -174580
33022, -409, -1334, -803, -163030, -681030, -166670
33042, -400, -1232, -777, -134470, -709870, -123830
33062, -360, -1141, -754, -108570, -732410, -84210
33082, -300, -1034, -678, -67620, -693770, -87080
33102, -276, -985, -625, -49210, -579740, -132720
33122, -266, -954, -583, -38220, -465290, -170590
33142, -254, -932, -558, 8120, -413910, -172690
33162, -230, -899, -527, 54950, -392700, -155050
33182, -208, -870, -507, 66360, -357770, -129990
33202, -192, -827, -472, 53410, -302540, -100870
33222, -183, -782, -451, 38570, -238000, -69930
33242, -166, -705, -410, 31080, -169330, -44450
33262, -151, -642, -374, 30660, -100520, -22540
33282, -139, -576, -347, 32340, -32480, 2100
33302, -141, -541, -336, 28980, 37800, 31780
33322, -141, -503, -322, 32620, 108220, 63420
33342, -149, -480, -311, 50050, 172620, 94430
33362, -157, -455, -307, 65730, 231770, 127120
33382, -174, -469, -326, 72240, 289450, 160790
33402, -204, -508, -366, 70280, 349160, 189980
33422, -236, -565, -413, 75670, 417130, 201880
33442, -276, -634, -465, 88200, 496790, 195300
33462, -318, -728, -528, 109130, 584220, 174160
33482, -359, -850, -594, 137270, 661710, 154840
33502, -400, -1025, -676, 165480, 717010, 149310
33522, -428, -1187, -751, 185780, 745850, 161560
33542, -453, -1323, -841, 191800, 745220, 189490
33562, -443, -1292, -834, 198030, 725410, 218190
33582, -404, -1149, -754, 234430, 702240, 233590
33602, -368, -1041, -687, 287350, 659750, 260400
33622, -361, -1025, -676, 324240, 595840, 312900
33642, -377, -1089, -717, 325010, 550200, 361130
33662, -388, -1183, -755, 313600, 537530, 381850
33682, -398, -1281, -764, 313740, 538860, 382340
33702, -400, -1364, -756, 298130, 538020, 381990
33722, -409, -1427, -769, 243320, 511700, 401240
33742, -410, -1402, -755, 156520, 461720, 434490
33762, -402, -1354, -725, 76370, 416710, 448910
33782, -383, -1291, -678, 29540, 384510, 432880
33802, -358, -1219, -631, 12740, 352240, 398930
33822, -340, -1162, -593, 11130, 307650, 367150
33842, -326, -1125, -571, 3150, 265230, 337260
33862, -325, -1117, -568, -25410, 246400, 296800
33882, -316, -1090, -537, -66710, 247100, 244020
33902, -299, -1031, -490, -91980, 242970, 185290
33922, -282, -960, -450, -92540, 197890, 148750
33942, -262, -877, -423, -81970, 116550, 138110
33962, -249, -819, -405, -75880, 41510, 130200
33982, -233, -752, -369, -75530, -910, 105350
34002, -222, -692, -343, -80990, -11480, 60830
34022, -215, -645, -319, -88200, -18760, 17710
34042, -207, -595, -298, -93100, -41300, -9800
34062, -205, -564, -290, -88900, -78960, -26320
34082, -206, -553, -293, -82600, -117250, -42980
34102, -205, -537, -297, -72380, -152530, -63140
34122, -204, -523, -296, -48650, -186970, -87430
34142, -207, -521, -302, -25200, -209300, -117950
34162, -212, -548, -321, -9940, -222670, -147840
34182, -228, -603, -349, -9380, -223930, -178640
34202, -260, -696, -387, -18130, -211680, -214480
34222, -283, -784, -417, -23870, -194600, -257530
34242, -313, -899, -460, -19810, -185710, -303590
34262, -344, -1069, -536, -9170, -204260, -334180
34282, -385, -1264, -636, -10920, -247100, -349230
34302, -413, -1412, -717, -43120, -300230, -353710
34322, -413, -1397, -721, -99190, -340900, -366170
34342, -411, -1287, -700, -170030, -367570, -384440
34362, -393, -1170, -672, -226310, -474110, -359170
34382, -373, -1087, -641, -294910, -488110, -363160
34402, -365, -1061, -627, -319690, -484470, -371770
34422, -371, -1083, -650, -325920, -512540, -349370
34442, -391, -1179, -718, -318710, -573510, -294140
34462, -410, -1320, -802, -310940, -624470, -238770
34482, -424, -1460, -884, -308420, -639730, -204470
34502, -423, -1490, -896, -283850, -636160, -188300
34522, -402, -1354, -816, -225260, -643510, -172620
34542, -389, -1225, -759, -178220, -667940, -138110
34562, -365, -1137, -731, -142800, -686420, -101570
34582, -329, -1056, -689, -94920, -669760, -91840
34602, -283, -960, -608, -45430, -610960, -110390
34622, -253, -902, -553, -16730, -532490, -131600
34642, -242, -901, -543, -18970, -463190, -129290
34662, -234, -914, -548, -18340, -410410, -108920
34682, -214, -876, -518, 5740, -354970, -96040
34702, -193, -833, -490, 28140, -285600, -90160
34722, -176, -758, -437, 36820, -216580, -72030
34742, -160, -695, -399, 40460, -156380, -41510
34762, -146, -632, -373, 42350, -101220, -3010
34782, -137, -571, -344, 44170, -39970, 32760
34802, -136, -534, -332, 42070, 31430, 64470
34822, -141, -501, -326, 38920, 109900, 92890
34842, -155, -497, -338, 39690, 187740, 122010
34862, -174, -498, -353, 50750, 268380, 142730
34882, -202, -515, -375, 63910, 356370, 150150
34902, -230, -543, -403, 75880, 445270, 150500
34922, -260, -597, -436, 93800, 522340, 153160
34942, -296, -689, -501, 115360, 579180, 166670
34962, -344, -838, -596, 140770, 626220, 181510
34982, -395, -991, -687, 166670, 682080, 181160
35002, -421, -1118, -741, 199640, 737170, 170240
35022, -441, -1237, -805, 229810, 755650, 184170
35042, -426, -1208, -797, 246400, 737240, 220780
35062, -393, -1094, -736, 277270, 701960, 257740
35082, -382, -1021, -704, 302050, 657790, 305900
35102, -380, -1004, -685, 306810, 626150, 350910
35122, -384, -1060, -696, 306040, 604800, 383040
35142, -386, -1147, -716, 303660, 577780, 410900
35162, -403, -1272, -762, 296240, 539630, 441630
35182, -426, -1403, -815, 260820, 516180, 460670
35202, -439, -1483, -831, 205730, 511490, 459690
35222, -438, -1462, -783, 141120, 511350, 445410
35242, -420, -1379, -724, 63980, 495740, 431200
35262, -390, -1279, -666, -4480, 442330, 426440
35282, -369, -1224, -640, -43400, 373240, 413210
35302, -355, -1194, -625, -55090, 316470, 382620
35322, -344, -1165, -598, -56070, 289660, 329350
35342, -328, -1118, -554, -59500, 287630, 258370
35362, -315, -1077, -519, -66220, 277620, 194180
35382, -302, -1029, -480, -78750, 243180, 150010
35402, -289, -991, -456, -97790, 191380, 118790
35422, -283, -963, -452, -117110, 125090, 98910
35442, -274, -917, -440, -124880, 52150, 84560
35462, -258, -852, -423, -116200, -16170, 68040
35482, -239, -762, -387, -102480, -65380, 42000
35502, -227, -683, -343, -96950, -80360, -2520
35522, -208, -597, -288, -90300, -84630, -50960
35542, -204, -549, -274, -84350, -107800, -82950
35562, -211, -530, -282, -89600, -157570, -87360
35582, -203, -490, -272, -96880, -210420, -88340
35602, -200, -473, -282, -95200, -248570, -104860
35622, -199, -458, -295, -83790, -280910, -120680
35642, -195, -439, -289, -63700, -298480, -142660
35662, -204, -453, -292, -48160, -285390, -185780
35682, -225, -511, -318, -39270, -260610, -233870
35702, -255, -614, -360, -27440, -245280, -275660
35722, -286, -755, -411, -13090, -235830, -317870
35742, -331, -975, -504, -12460, -224980, -360290
35762, -382, -1270, -624, -30240, -222880, -393820
35782, -457, -1664, -837, -51590, -258510, -405580
35802, -497, -1849, -951, -92960, -333480, -392070
35822, -470, -1583, -854, -156940, -405930, -384860
35842, -424, -1229, -727, -228130, -472360, -377300
35862, -369, -955, -607, -285740, -540750, -353640
35882, -331, -817, -544, -315770, -575330, -341110
35902, -329, -827, -564, -352310, -572040, -334390
35922, -350, -951, -627, -375410, -566930, -315000
35942, -376, -1155, -715, -357070, -580440, -282870
35962, -423, -1474, -858, -305760, -606760, -247870
35982, -482, -1830, -1062, -264950, -624470, -217490
36002, -490, -1848, -1089, -243880, -639240, -192500
36022, -432, -1470, -881, -201250, -668780, -169400
36042, -389, -1175, -754, -132230, -699020, -155120
36062, -344, -1016, -697, -91000, -736190, -118650
36082, -288, -899, -626, -63420, -747810, -86030
36102, -242, -814, -548, -24780, -690060, -98840
36122, -220, -776, -488, 350, -458080, -171640
36142, -221, -817, -495, -7840, -379750, -161630
36162, -218, -864, -513, 630, -327530, -137620
36182, -206, -877, -513, 32550, -276430, -120330
36202, -186, -837, -477, 62370, -213640, -105420
36222, -173, -780, -434, 69090, -150150, -74550
36242, -162, -722, -407, 56980, -96880, -25690
36262, -154, -658, -382, 45850, -44100, 21140
36282, -144, -589, -356, 38500, 21630, 56070
36302, -141, -536, -336, 34370, 97090, 84910
36322, -144, -488, -321, 29470, 173390, 116060
36342, -159, -471, -327, 31080, 246540, 147630
36362, -173, -448, -330, 42770, 316610, 173460
36382, -194, -438, -336, 61390, 382970, 193690
36402, -213, -446, -355, 86030, 443100, 210980
36422, -243, -492, -402, 108780, 500430, 224420
36442, -285, -569, -468, 128520, 567280, 224210
36462, -343, -691, -558, 151480, 649670, 206360
36482, -403, -853, -662, 186690, 740180, 176540
36502, -458, -1094, -779, 230510, 816270, 155610
36522, -502, -1415, -894, 257740, 856520, 162890
36542, -510, -1662, -1003, 248850, 836850, 209230
36562, -462, -1491, -939, 234150, 750400, 287000
36582, -399, -1117, -764, 262360, 658770, 351750
36602, -360, -892, -633, 287210, 614040, 386120
36622, -340, -818, -585, 298480, 579880, 420070
36642, -348, -885, -618, 300510, 535290, 465150
36662, -375, -1062, -715, 294630, 507710, 495040
36682, -430, -1314, -838, 290150, 521150, 487480
36702, -463, -1526, -865, 264670, 577710, 443800
36722, -471, -1627, -841, 192710, 614670, 410970
36742, -466, -1568, -826, 58030, 569240, 433860
36762, -429, -1394, -748, -58660, 482580, 455000
36782, -387, -1232, -638, -104090, 414400, 426160
36802, -352, -1118, -582, -103670, 358470, 375200
36822, -330, -1081, -564, -82180, 299740, 329560
36842, -322, -1085, -560, -55300, 257250, 278810
36862, -322, -1100, -546, -37940, 246330, 212170
36882, -314, -1095, -512, -50400, 262150, 133350
36902, -306, -1075, -480, -93100, 262990, 69650
36922, -302, -1046, -475, -135730, 200200, 51100
36942, -291, -988, -473, -147490, 84910, 61740
36962, -260, -864, -420, -131110, -20160, 58380
36982, -236, -740, -368, -99050, -88760, 32970
37002, -213, -630, -313, -87640, -119560, -3360
37022, -194, -547, -286, -94430, -132020, -39480
37042, -194, -514, -272, -110810, -140350, -68950
37062, -195, -478, -258, -128100, -152180, -91490
37082, -193, -439, -238, -123130, -175210, -117600
37102, -191, -417, -243, -101780, -214480, -139300
37122, -204, -427, -268, -79030, -266630, -147630
37142, -213, -453, -300, -52780, -309750, -161840
37162, -212, -459, -313, -20720, -329700, -195650
37182, -230, -508, -332, 5670, -325500, -241080
37202, -255, -587, -351, 5530, -292810, -295470
37222, -291, -734, -411, -5880, -255990, -351540
37242, -338, -992, -508, -21210, -242900, -393120
37262, -404, -1301, -658, -45360, -265510, -409010
37282, -467, -1587, -837, -81410, -321790, -404110
37302, -484, -1624, -872, -118160, -397460, -397950
37322, -440, -1376, -744, -143850, -462490, -409570
37342, -415, -1141, -675, -205590, -501970, -421890
37362, -392, -991, -656, -300370, -563430, -383880
37382, -367, -925, -642, -362250, -615790, -338660
37402, -361, -986, -664, -378910, -621530, -322630
37422, -384, -1163, -732, -372050, -595770, -325640
37442, -420, -1392, -845, -343000, -583100, -319410
37462, -469, -1615, -964, -294980, -614530, -284480
37482, -485, -1653, -1006, -255150, -674590, -228760
37502, -460, -1486, -931, -210840, -734930, -179270
37522, -410, -1259, -821, -146580, -780990, -143570
37542, -354, -1077, -721, -106960, -790160, -123620
37562, -320, -989, -675, -97510, -746760, -126770
37582, -298, -966, -657, -90860, -679070, -133210
37602, -273, -940, -610, -49420, -603960, -149310
37622, -252, -928, -567, 11270, -512610, -187810
37642, -234, -934, -543, 51030, -429590, -212170
37662, -224, -945, -542, 59290, -374010, -198310
37682, -211, -915, -530, 42630, -335370, -155050
37702, -190, -838, -487, 33460, -296240, -107660
37722, -169, -752, -439, 36330, -238560, -75740
37742, -150, -668, -397, 43540, -167860, -51660
37762, -137, -600, -367, 46270, -93100, -25130
37782, -130, -530, -330, 40530, -10220, 4690
37802, -131, -474, -308, 39620, 76790, 33810
37822, -134, -426, -288, 42560, 154840, 70420
37842, -146, -405, -291, 50190, 217420, 117670
37862, -164, -401, -310, 58660, 269990, 169610
37882, -196, -422, -347, 64820, 395290, 239750
37902, -226, -463, -392, 82390, 473270, 246470
37922, -269, -515, -441, 111020, 559720, 235970
37942, -317, -599, -514, 151410, 647920, 216650
37962, -372, -730, -600, 194950, 734860, 196980
37982, -433, -941, -716, 227080, 813260, 188370
38002, -496, -1229, -847, 241430, 871080, 195930
38022, -527, -1482, -951, 236320, 888300, 221060
38042, -508, -1488, -969, 227220, 846370, 269430
38062, -447, -1223, -836, 252980, 771750, 324170
38082, -385, -958, -682, 302400, 696710, 378000
38102, -361, -843, -615, 321160, 631610, 439250
38122, -373, -871, -642, 305830, 586390, 494900
38142, -397, -993, -716, 292110, 576170, 514220
38162, -425, -1158, -781, 302890, 595840, 494620
38182, -455, -1372, -820, 304640, 624680, 466620
38202, -486, -1570, -855, 238840, 637280, 458710
38222, -503, -1611, -881, 83650, 622650, 469420
38242, -466, -1462, -801, -53060, 584010, 459410
38262, -413, -1265, -668, -88970, 519750, 420630
38282, -369, -1128, -583, -83370, 436870, 383040
38302, -348, -1070, -562, -77490, 352030, 354830
38322, -335, -1058, -566, -70070, 300790, 309190
38342, -329, -1068, -555, -53480, 292460, 231980
38362, -334, -1091, -538, -53480, 318430, 134330
38382, -311, -1036, -445, -63280, 330890, 47110
38402, -294, -1008, -428, -69790, 257180, 21000
38422, -300, -1005, -468, -108220, 120960, 52290
38442, -273, -897, -425, -119210, 7700, 55440
38462, -245, -782, -379, -96530, -60620, 20300
38482, -229, -689, -335, -103390, -95690, -15890
38502, -215, -618, -312, -124180, -117180, -49560
38522, -209, -566, -296, -135450, -142590, -77350
38542, -213, -534, -289, -136010, -170380, -100450
38562, -209, -488, -263, -120400, -194390, -133840
38582, -212, -456, -250, -94220, -225610, -169960
38602, -223, -470, -282, -72590, -281610, -183750
38622, -245, -528, -334, -54530, -348880, -184030
38642, -259, -587, -378, -28000, -393750, -204400
38662, -277, -657, -407, -5600, -399490, -252630
38682, -294, -736, -430, -8960, -376250, -311080
38702, -318, -837, -465, -36680, -350000, -363230
38722, -349, -973, -535, -77420, -351750, -389060
38742, -394, -1122, -625, -108500, -392770, -388150
38762, -428, -1220, -698, -128310, -444360, -389550
38782, -411, -1132, -649, -140350, -479360, -415310
38802, -382, -998, -578, -153090, -505890, -443590
38822, -384, -953, -586, -218190, -534030, -437220
38842, -391, -1002, -654, -302960, -581700, -390040
38862, -399, -1109, -725, -353080, -624540, -342090
38882, -405, -1213, -779, -370370, -627130, -323470
38902, -402, -1245, -761, -347410, -608300, -327390
38922, -412, -1299, -767, -306250, -604870, -323400
38942, -487, -1481, -951, -292320, -645680, -274610
38962, -470, -1505, -988, -274610, -743400, -180390
38982, -401, -1246, -784, -170240, -786870, -158830
39002, -387, -1140, -745, -100100, -753900, -186270
39022, -371, -1110, -747, -110460, -753690, -151270
39042, -353, -1137, -774, -114380, -736890, -124180
39062, -323, -1102, -719, -66780, -686140, -134540
39082, -296, -1066, -668, 10920, -608160, -174300
39102, -272, -1037, -619, 40390, -513870, -217770
39122, -260, -1007, -589, 23100, -417200, -244090
39142, -241, -958, -568, 14420, -371770, -219870
39162, -216, -876, -512, 26250, -357630, -171500
39182, -196, -808, -485, 34650, -318710, -137760
39202, -164, -710, -426, 49840, -278250, -100660
39222, -143, -635, -381, 68320, -218610, -74480
39242, -122, -550, -324, 63700, -122080, -65590
39262, -125, -521, -317, 37240, -18550, -49560
39282, -139, -530, -333, 2660, 59920, -2590
39302, -143, -506, -327, -9520, 123550, 51870
39322, -142, -470, -316, 16940, 180040, 93870
39342, -154, -460, -318, 53410, 231000, 132930
39362, -183, -499, -360, 70210, 284480, 177940
39382, -215, -545, -408, 70210, 345730, 220500
39402, -253, -601, -460, 84070, 415240, 245070
39422, -314, -705, -538, 111370, 498260, 248710
39442, -368, -813, -603, 124880, 601230, 232610
39462, -403, -918, -651, 135170, 708470, 202580
39482, -433, -1059, -715, 151760, 789460, 181930
39502, -457, -1176, -787, 160370, 823690, 194530
39522, -463, -1190, -802, 156170, 820540, 227710
39542, -436, -1116, -764, 164990, 806890, 249060
39562, -414, -1053, -744, 208530, 775740, 269850
39582, -393, -1015, -723, 264950, 720090, 308000
39602, -391, -1013, -713, 321440, 669550, 343630
39622, -398, -1063, -738, 352730, 640220, 370650
39642, -417, -1159, -772, 345170, 615230, 415450
39662, -430, -1262, -778, 309750, 629510, 414680
39682, -435, -1351, -764, 243810, 621110, 426300
39702, -439, -1390, -758, 150080, 572320, 457590
39722, -430, -1354, -743, 59640, 501130, 482930
39742, -404, -1263, -695, 25900, 430080, 480620
39762, -373, -1156, -631, 26250, 389270, 441070
39782, -353, -1100, -594, 15610, 371560, 387380
39802, -339, -1068, -563, -4270, 361200, 331870
39822, -327, -1051, -539, -23870, 349930, 275590
39842, -317, -1044, -518, -48650, 327880, 229600
39862, -318, -1052, -509, -81480, 294980, 191660
39882, -302, -1021, -488, -96390, 242340, 157710
39902, -289, -980, -466, -88060, 172340, 129430
39922, -270, -911, -432, -75390, 105770, 103040
39942, -248, -825, -394, -64260, 51170, 74970
39962, -235, -750, -362, -68250, 13580, 44450
39982, -226, -688, -337, -82110, -8960, 8540
40002, -212, -611, -295, -87850, -34930, -25970
40022, -202, -556, -273, -84140, -79310, -47320
40042, -202, -530, -272, -81970, -134050, -57120
40062, -201, -517, -284, -77350, -185850, -67410
40082, -205, -519, -297, -65940, -222250, -89180
40102, -215, -538, -314, -49210, -240590, -122640
40122, -230, -568, -333, -24430, -252070, -163030
40142, -247, -619, -358, 4690, -265790, -204680
40162, -272, -713, -399, 21840, -277830, -245420
40182, -300, -843, -458, 17500, -281750, -285810
40202, -333, -997, -520, -6300, -282380, -323190
40222, -375, -1146, -608, -34720, -305550, -345240
40242, -398, -1215, -657, -47950, -369110, -348460
40262, -396, -1180, -642, -57190, -437290, -354690
40282, -386, -1115, -626, -120820, -462280, -375830
40302, -377, -1030, -602, -201320, -466830, -396830
40322, -366, -949, -573, -252700, -482440, -403550
40342, -355, -891, -556, -275590, -509180, -396270
40362, -358, -934, -591, -297990, -530810, -382830
40382, -376, -1077, -672, -321930, -547330, -362600
40402, -398, -1258, -759, -324240, -557480, -346850
40422, -438, -1461, -867, -312830, -573370, -328370
40442, -460, -1540, -921, -288820, -625450, -282730
40462, -446, -1434, -885, -252770, -696570, -225960
40482, -424, -1274, -819, -231350, -740740, -180250
40502, -403, -1155, -776, -215390, -752780, -148610
40522, -350, -1022, -699, -172900, -748580, -131110
40542, -309, -939, -631, -113540, -708820, -142940
40562, -291, -927, -611, -82180, -634620, -167510
40582, -280, -945, -606, -60900, -569100, -174580
40602, -266, -952, -591, -23450, -518140, -174090
40622, -244, -948, -567, 10290, -462350, -175630
40642, -230, -932, -548, 23030, -403690, -167440
40662, -214, -891, -518, 18760, -348600, -143570
40682, -194, -821, -479, 15750, -294770, -112420
40702, -169, -729, -423, 23520, -235200, -87150
40722, -148, -653, -382, 30590, -168630, -64610
40742, -137, -602, -358, 29680, -101010, -33110
40762, -129, -542, -331, 28910, -33250, 5390
40782, -131, -506, -319, 32270, 39970, 41720
40802, -141, -493, -325, 31080, 117670, 77210
40822, -156, -485, -329, 30310, 193900, 113330
40842, -175, -494, -348, 41930, 263760, 146370
40862, -200, -519, -376, 63980, 330680, 171850
40882, -233, -576, -424, 84980, 401240, 189350
40902, -277, -672, -493, 96040, 477750, 200550
40922, -328, -794, -567, 106050, 560350, 201180
40942, -375, -932, -638, 125930, 643020, 191240
40962, -422, -1115, -726, 145110, 712670, 183050
40982, -440, -1232, -784, 152950, 757750, 185290
41002, -437, -1248, -801, 165620, 769230, 198100
41022, -416, -1134, -755, 189210, 741510, 229390
41042, -384, -985, -683, 221550, 704760, 260400
41062, -358, -887, -629, 261100, 672910, 286020
41082, -349, -867, -618, 288470, 637560, 322210
41102, -365, -936, -664, 309120, 596400, 365680
41122, -383, -1045, -711, 324870, 570360, 395430
41142, -399, -1182, -742, 335090, 577430, 394730
41162, -417, -1325, -753, 328510, 590310, 389480
41182, -433, -1432, -779, 277550, 583730, 401800
41202, -437, -1435, -787, 179970, 548450, 430570
41222, -412, -1327, -712, 78960, 498820, 451640
41242, -382, -1212, -637, 27440, 455420, 437570
41262, -352, -1119, -583, 5670, 404040, 412160
41282, -327, -1058, -551, -1960, 339010, 391090
41302, -318, -1042, -553, -3710, 287700, 360010
41322, -322, -1048, -552, -20720, 272020, 308000
41342, -300, -987, -475, -44590, 290500, 234640
41362, -278, -925, -410, -34860, 296660, 158760
41382, -277, -918, -420, -29820, 246890, 131390
41402, -268, -894, -432, -111370, 95900, 122080
41422, -258, -846, -414, -115010, 44170, 94640
41442, -243, -777, -381, -92680, -140, 58730
41462, -223, -700, -346, -65940, -39900, 20860
41482, -216, -650, -324, -60970, -66640, -13650
41502, -212, -616, -309, -70280, -80570, -48860
41522, -214, -584, -290, -72730, -102270, -80080
41542, -212, -555, -278, -64540, -147000, -98980
41562, -218, -555, -296, -57190, -208180, -104790
41582, -224, -575, -326, -49140, -263970, -112490
41602, -235, -634, -379, -38640, -295050, -132230
41622, -261, -708, -419, -29050, -280560, -183050
41642, -273, -735, -405, -7980, -241570, -262220
41662, -290, -777, -405, 6230, -231840, -318780
41682, -308, -865, -448, -5880, -272300, -331100
41702, -345, -993, -530, -38010, -345800, -313180
41722, -369, -1097, -605, -76650, -401730, -309820
41742, -376, -1114, -610, -115710, -413560, -343140
41762, -371, -1082, -592, -153370, -408100, -387660
41782, -367, -1053, -593, -183610, -438900, -394800
41802, -365, -1045, -602, -232750, -471310, -383250
41822, -375, -1070, -630, -293020, -477400, -380800
41842, -387, -1116, -664, -311430, -499940, -369600
41862, -394, -1169, -702, -292810, -539210, -351960
41882, -394, -1218, -727, -274960, -585690, -322560
41902, -411, -1295, -791, -283920, -626990, -280350
41922, -421, -1347, -846, -313530, -657300, -229740
41942, -416, -1305, -822, -294770, -678650, -191800
41962, -393, -1212, -775, -233380, -694750, -167650
41982, -369, -1124, -726, -176190, -695100, -156380
42002, -350, -1076, -702, -141680, -680540, -147070
42022, -325, -1052, -687, -109200, -656180, -139300
42042, -300, -1018, -648, -71120, -609980, -144340
42062, -283, -995, -617, -37100, -554050, -151900
42082, -263, -970, -592, -9870, -506660, -148330
42102, -246, -944, -569, 3850, -453670, -142590
42122, -223, -892, -529, 12950, -392000, -136430
42142, -199, -833, -487, 23800, -326270, -127890
42162, -183, -769, -442, 27020, -260820, -110530
42182, -166, -709, -405, 27090, -201600, -82180
42202, -152, -660, -386, 28140, -147770, -46270
42222, -143, -618, -368, 28630, -88970, -10080
42242, -139, -586, -359, 30520, -21700, 23310
42262, -142, -553, -346, 35350, 52990, 52710
42282, -149, -539, -349, 46550, 130130, 79520
42302, -164, -527, -348, 50260, 208390, 107590
42322, -187, -539, -365, 49910, 286440, 135030
42342, -210, -567, -394, 55580, 356580, 161350
42362, -239, -607, -429, 71960, 422100, 180670
42382, -270, -676, -478, 92050, 487550, 191590
42402, -311, -780, -545, 106260, 552020, 198170
42422, -365, -920, -634, 115150, 617540, 198660
42442, -399, -1041, -695, 126350, 685650, 188930
42462, -420, -1159, -751, 156520, 733740, 180320
42482, -427, -1216, -781, 194950, 737310, 196770
42502, -415, -1170, -768, 225330, 716310, 226380
42522, -398, -1066, -725, 239820, 694960, 255780
42542, -368, -948, -659, 259980, 672420, 284410
42562, -352, -889, -619, 293230, 640640, 315560
42582, -352, -908, -625, 312340, 599340, 357420
42602, -371, -1019, -685, 313810, 562730, 397880
42622, -397, -1171, -738, 307720, 550200, 416360
42642, -415, -1319, -768, 293370, 560630, 410410
42662, -424, -1407, -766, 258720, 560350, 407610
42682, -422, -1409, -756, 191870, 532630, 420210
42702, -410, -1317, -702, 102410, 488950, 434490
42722, -377, -1185, -624, 30870, 443520, 431130
42742, -353, -1104, -583, -13790, 401590, 405300
42762, -325, -1039, -543, -35280, 351400, 374430
42782, -311, -1005, -523, -26880, 298690, 338660
42802, -303, -989, -503, -15610, 262080, 295470
42822, -296, -973, -479, -19530, 249900, 240380
42842, -296, -978, -464, -39060, 251370, 177730
42862, -287, -958, -437, -70560, 244300, 122710
42882, -279, -936, -436, -80640, 188230, 96320
42902, -268, -889, -420, -76930, 96320, 93730
42922, -252, -823, -399, -78470, 21770, 78680
42942, -237, -750, -370, -82880, -27650, 49140
42962, -228, -684, -344, -85330, -65380, 19390
42982, -210, -616, -314, -82530, -93730, -14420
43002, -209, -578, -299, -74690, -121590, -47390
43022, -212, -560, -297, -78890, -146440, -74690
43042, -217, -540, -292, -88480, -167300, -101920
43062, -224, -549, -310, -81620, -198030, -127820
43082, -234, -577, -342, -58590, -245840, -144550
43102, -243, -614, -371, -29820, -292110, -162820
43122, -257, -667, -393, -7770, -310310, -199780
43142, -277, -747, -416, -18060, -277060, -302120
43162, -310, -867, -459, -45360, -264670, -342860
43182, -342, -1008, -523, -70420, -283570, -365890
43202, -380, -1157, -606, -89390, -339290, -367290
43222, -415, -1281, -691, -112490, -402360, -367220
43242, -414, -1263, -692, -138320, -452270, -378280
43262, -391, -1125, -630, -177380, -485030, -391020
43282, -370, -1011, -595, -247660, -511770, -385140
43302, -371, -980, -613, -314860, -546980, -353010
43322, -379, -1027, -667, -354130, -574840, -319760
43342, -367, -1048, -671, -335930, -586600, -309680
43362, -369, -1112, -686, -305620, -579880, -311290
43382, -401, -1273, -765, -291690, -588770, -288680
43402, -429, -1411, -849, -270410, -626430, -246470
43422, -452, -1484, -913, -236810, -685440, -191520
43442, -422, -1353, -848, -177870, -731290, -153860
43462, -382, -1170, -753, -132930, -736330, -143710
43482, -343, -1035, -685, -117740, -716240, -135310
43502, -318, -964, -653, -112070, -671580, -132580
43522, -292, -919, -616, -83160, -614740, -139230
43542, -268, -883, -577, -33040, -546350, -161630
43562, -248, -865, -544, 11060, -477330, -182630
43582, -233, -868, -521, 34440, -414470, -189630
43602, -219, -874, -505, 35490, -358820, -178220
43622, -210, -873, -499, 21490, -311850, -147420
43642, -199, -838, -480, 11480, -270410, -107030
43662, -183, -789, -458, 11550, -223230, -71470
43682, -165, -721, -421, 17010, -164500, -44940
43702, -151, -655, -385, 26740, -93450, -26040
43722, -141, -599, -357, 36680, -14910, -8680
43742, -133, -535, -321, 41020, 61460, 16450
43762, -138, -506, -311, 38080, 129430, 53060
43782, -150, -501, -319, 28980, 188790, 98420
43802, -165, -501, -330, 25970, 242550, 142590
43822, -187, -533, -365, 31010, 296310, 177730
43842, -219, -585, -412, 42700, 358330, 198170
43862, -253, -650, -458, 58380, 434700, 199640
43882, -292, -742, -510, 77770, 517790, 188720
43902, -338, -875, -582, 98070, 593950, 177240
43922, -385, -1051, -673, 112980, 658140, 169120
43942, -419, -1221, -752, 126210, 702100, 165480
43962, -440, -1345, -819, 138880, 715750, 172690
43982, -440, -1303, -801, 148960, 709870, 184380
44002, -401, -1136, -716, 173530, 697060, 189560
44022, -362, -997, -645, 216790, 655480, 212100
44042, -347, -961, -641, 256550, 594020, 254940
44062, -356, -1004, -680, 284410, 545160, 293720
44082, -368, -1068, -713, 310030, 533680, 302680
44102, -380, -1146, -713, 340410, 549780, 287280
44122, -381, -1256, -713, 352730, 558390, 281400
44142, -386, -1363, -730, 317380, 532560, 307930
44162, -397, -1406, -752, 238560, 477890, 355810
44182, -386, -1336, -712, 145530, 426930, 388640
44202, -352, -1197, -627, 92960, 379470, 392140
44222, -324, -1082, -567, 86590, 319410, 385210
44242, -304, -1004, -538, 93030, 256130, 381430
44262, -294, -966, -514, 92120, 220290, 364840
44282, -298, -973, -508, 72730, 225750, 324170
44302, -299, -981, -496, 32200, 256130, 268590
44322, -295, -973, -466, -8820, 275450, 214830
44342, -288, -961, -450, -29890, 251230, 179830
44362, -275, -925, -436, -29820, 178080, 170870
44382, -260, -880, -424, -25690, 93940, 168070
44402, -244, -815, -404, -30870, 36330, 151340
44422, -229, -744, -373, -40740, 9590, 118930
44442, -216, -674, -340, -49350, 770, 78470
44462, -209, -623, -308, -54530, -2380, 36330
44482, -201, -574, -286, -57540, -9170, -1260
44502, -201, -546, -273, -55300, -28700, -30450
44522, -198, -527, -272, -45290, -64260, -51520
44542, -201, -538, -294, -29330, -111720, -65940
44562, -210, -568, -320, -14140, -156590, -80080
44582, -225, -626, -351, -980, -178920, -108850
44602, -247, -709, -382, 12040, -176540, -154000
44622, -270, -812, -412, 20160, -161420, -205940
44642, -296, -947, -465, 15750, -147070, -255220
44662, -330, -1109, -540, -6930, -151130, -287770
44682, -373, -1273, -643, -39760, -187600, -295890
44702, -385, -1292, -654, -66710, -245560, -297920
44722, -369, -1166, -609, -79940, -311080, -308140
44742, -348, -1027, -563, -103040, -377230, -312830
44762, -326, -921, -523, -161840, -415870, -317170
44782, -326, -914, -532, -230160, -420840, -330330
44802, -345, -1000, -577, -284760, -410550, -342440
44822, -365, -1133, -639, -308840, -404110, -352590
44842, -391, -1316, -730, -282310, -428190, -353010
44862, -415, -1461, -823, -258580, -469350, -339360
44882, -426, -1457, -839, -273700, -509880, -315140
44902, -426, -1341, -805, -272440, -654080, -198660
44922, -399, -1170, -751, -254380, -715260, -135590
44942, -363, -1061, -706, -243950, -717640, -108430
44962, -332, -995, -672, -226730, -669410, -113820
44982, -308, -948, -624, -184660, -599200, -139160
45002, -295, -945, -599, -125440, -545790, -157850
45022, -292, -974, -600, -68460, -519820, -156450
45042, -280, -1001, -607, -24430, -502880, -144130
45062, -262, -999, -594, 910, -471170, -133630
45082, -242, -958, -558, 3360, -417550, -124880
45102, -226, -895, -515, -3640, -359730, -108150
45122, -200, -805, -461, -6720, -310870, -82670
45142, -176, -713, -420, -1750, -262990, -57750
45162, -154, -643, -383, 6160, -201390, -40180
45182, -140, -580, -350, 10570, -126070, -25830
45202, -133, -536, -323, 17780, -47110, -9380
45222, -128, -501, -305, 28210, 25060, 15120
45242, -133, -485, -299, 30100, 90230, 48510
45262, -144, -496, -317, 29190, 151830, 85820
45282, -160, -523, -347, 36960, 212380, 119420
45302, -185, -564, -378, 53830, 282730, 140420
45322, -221, -638, -427, 64750, 368130, 147910
45342, -271, -746, -496, 66360, 460250, 145110
45362, -321, -917, -583, 69020, 543060, 139930
45382, -356, -1058, -644, 85820, 603050, 137900
45402, -384, -1188, -708, 117180, 629440, 146440
45422, -392, -1225, -735, 136570, 633570, 162680
45442, -387, -1155, -708, 143010, 637350, 174020
45462, -374, -1039, -669, 158130, 626150, 190330
45482, -343, -916, -611, 203070, 604590, 202860
45502, -326, -866, -589, 260750, 579950, 216650
45522, -327, -907, -620, 297220, 552160, 245210
45542, -348, -1008, -668, 320530, 536900, 269080
45562, -390, -1183, -750, 332150, 541310, 277970
45582, -406, -1375, -791, 321090, 556850, 276710
45602, -407, -1500, -796, 295960, 545650, 288120
45622, -398, -1510, -787, 243460, 484820, 330960
45642, -382, -1386, -731, 173460, 397110, 384370
45662, -352, -1219, -649, 119700, 332920, 404530
45682, -322, -1087, -581, 93940, 296380, 391440
45702, -307, -1020, -545, 93800, 258510, 375970
45722, -296, -986, -518, 95620, 233660, 353780
45742, -299, -1006, -521, 83370, 231910, 318640
45762, -307, -1042, -521, 54880, 239400, 279020
45782, -307, -1064, -511, 15260, 243600, 236950
45802, -303, -1070, -508, -19460, 219660, 206990
45822, -293, -1035, -497, -37660, 162470, 192710
45842, -274, -947, -449, -41090, 100100, 175420
45862, -251, -843, -403, -40530, 52080, 147560
45882, -235, -761, -375, -48230, 14840, 120610
45902, -223, -692, -348, -62160, -10430, 92750
45922, -204, -614, -307, -67480, -26110, 59710
45942, -198, -571, -291, -67060, -38500, 25270
45962, -194, -535, -279, -66290, -56000, -2240
45982, -187, -505, -264, -56560, -80220, -27790
46002, -188, -505, -275, -40880, -106330, -54320
46022, -198, -530, -292, -32760, -127820, -78120
46042, -209, -565, -311, -25200, -140420, -106260
46062, -222, -611, -329, -10220, -145320, -143710
46082, -243, -691, -363, 3640, -147350, -182210
46102, -268, -792, -397, 5390, -145110, -220920
46122, -291, -921, -452, -490, -145810, -258370
46142, -319, -1063, -514, -20510, -162260, -282520
46162, -350, -1181, -582, -49000, -204750, -287000
46182, -370, -1254, -631, -79660, -263480, -283570
46202, -371, -1251, -645, -114380, -313670, -289450
46222, -367, -1183, -624, -151690, -342090, -308630
46242, -344, -1059, -566, -185570, -359170, -330260
46262, -339, -1000, -553, -215600, -380940, -341950
46282, -348, -1033, -593, -260260, -410550, -329910
46302, -363, -1126, -647, -294420, -442610, -310450
46322, -380, -1274, -727, -288260, -475300, -296100
46342, -397, -1388, -787, -279860, -494340, -289380
46362, -393, -1361, -776, -279090, -515270, -273840
46382, -393, -1269, -756, -281680, -550060, -240940
46402, -384, -1173, -727, -279230, -601650, -185920
46422, -369, -1115, -712, -250390, -649810, -134820
46442, -333, -1043, -664, -200970, -675010, -103250
46462, -313, -1023, -647, -155190, -656460, -101010
46482, -294, -1007, -625, -132510, -604380, -114030
46502, -284, -1017, -608, -121520, -547400, -123060
46522, -283, -1029, -596, -98210, -478870, -142940
46542, -271, -1030, -600, -51240, -443520, -140140
46562, -247, -979, -567, 9030, -449190, -111580
46582, -225, -918, -527, 38430, -421610, -101150
46602, -196, -812, -458, 27090, -359660, -95830
46622, -177, -729, -412, 17710, -297290, -82250
46642, -164, -660, -379, -1050, -233730, -60480
46662, -150, -600, -357, -13790, -124880, -3220
46682, -140, -556, -337, 3430, -64470, 15610
46702, -136, -521, -323, 25340, 4830, 31430
46722, -131, -490, -308, 46340, 76650, 49280
46742, -138, -476, -305, 58660, 147280, 73570
46762, -161, -510, -329, 51870, 220290, 102270
46782, -189, -564, -363, 41510, 295680, 124880
46802, -217, -637, -412, 41510, 366170, 137550
46822, -249, -716, -460, 53480, 435050, 138390
46842, -288, -831, -523, 68250, 504910, 131810
46862, -326, -967, -592, 80010, 565740, 127750
46882, -363, -1112, -662, 97370, 600320, 134400
46902, -373, -1175, -683, 121310, 608230, 146510
46922, -376, -1193, -713, 142520, 594370, 165340
46942, -378, -1138, -709, 162120, 581700, 178990
46962, -363, -1032, -659, 195790, 590450, 169960
46982, -338, -953, -608, 239820, 587230, 169330
47002, -328, -949, -603, 276290, 551460, 198730
47022, -339, -1047, -660, 292880, 509040, 239120
47042, -366, -1189, -737, 296730, 496230, 256340
47062, -390, -1317, -768, 303800, 506310, 249970
47082, -381, -1384, -743, 299530, 501830, 249690
47102, -365, -1397, -727, 266000, 447090, 284130
47122, -356, -1338, -707, 210630, 361830, 339920
47142, -344, -1245, -656, 158410, 309540, 361550
47162, -328, -1164, -610, 124600, 285670, 351120
47182, -309, -1087, -564, 108570, 263060, 331100
47202, -294, -1031, -532, 108360, 228060, 316610
47222, -286, -998, -509, 108920, 189770, 308560
47242, -282, -985, -493, 91980, 176330, 286720
47262, -292, -1008, -498, 47880, 185920, 251930
47282, -292, -1016, -490, 0, 188510, 217280
47302, -284, -987, -470, -18270, 160090, 191170
47322, -271, -940, -445, -12180, 104020, 176470
47342, -257, -877, -420, -7070, 49770, 159740
47362, -243, -819, -397, -15960, 13720, 134820
47382, -232, -758, -374, -34230, -7420, 105700
47402, -215, -684, -340, -41440, -25550, 75530
47422, -207, -623, -311, -43050, -41160, 46130
47442, -202, -589, -303, -54530, -49700, 18130
47462, -197, -553, -286, -64050, -56770, -11200
47482, -196, -537, -280, -58450, -70490, -41580
47502, -202, -537, -285, -43820, -91560, -68740
47522, -198, -533, -286, -23100, -115080, -95970
47542, -206, -562, -303, -3500, -135870, -124600
47562, -221, -636, -336, -840, -144760, -153860
47582, -258, -773, -399, -16520, -136500, -188510
47602, -286, -918, -453, -30380, -120610, -231350
47622, -314, -1051, -494, -31220, -115570, -274470
47642, -325, -1135, -522, -42840, -140000, -296030
47662, -356, -1233, -606, -77280, -202230, -288750
47682, -364, -1270, -656, -118300, -287840, -259490
47702, -358, -1222, -623, -162470, -319270, -272580
47722, -355, -1146, -591, -205520, -314160, -306810
47742, -340, -1063, -572, -226520, -346710, -309190
47762, -323, -1041, -577, -233380, -404180, -289870
47782, -347, -1136, -632, -278040, -409710, -291410
47802, -366, -1225, -683, -315420, -409710, -286370
47822, -385, -1310, -744, -303030, -445760, -267260
47842, -375, -1300, -734, -263690, -514430, -224840
47862, -375, -1299, -758, -247590, -557200, -190400
47882, -368, -1247, -739, -274540, -563850, -162820
47902, -356, -1178, -704, -264250, -569520, -138810
47922, -343, -1121, -680, -211190, -589610, -111300
47942, -321, -1077, -661, -159390, -601790, -87570
47962, -301, -1062, -653, -130410, -579460, -84140
47982, -274, -1008, -598, -107660, -528570, -97020
48002, -262, -971, -564, -72590, -469490, -113330
48022, -244, -923, -537, -45080, -432320, -105630
48042, -228, -887, -522, -26950, -413140, -79660
48062, -209, -842, -497, -14560, -380310, -59150
48082, -185, -777, -452, 1260, -324870, -50750
48102, -170, -707, -397, 22400, -252000, -51590
48122, -162, -678, -379, 27370, -174230, -47040
48142, -161, -657, -375, 13860, -110180, -22470
48162, -154, -638, -372, 7140, -58940, 11060
48182, -153, -608, -360, 13790, -4060, 37940
48202, -157, -582, -348, 25760, 61320, 57330
48222, -167, -576, -354, 34370, 130060, 77560
48242, -183, -585, -366, 40040, 196140, 99750
48262, -203, -607, -385, 41930, 260330, 120750
48282, -223, -640, -416, 55090, 319760, 135660
48302, -245, -685, -449, 74200, 378630, 140560
48322, -279, -757, -494, 92890, 443660, 135380
48342, -312, -853, -548, 106120, 511140, 128030
48362, -348, -978, -613, 121450, 569590, 123060
48382, -367, -1092, -662, 144550, 607460, 124810
48402, -380, -1193, -711, 170100, 625380, 153020
48422, -380, -1228, -741, 203700, 589960, 185640
48442, -364, -1149, -702, 234150, 556500, 212730
48462, -343, -1053, -652, 262220, 527240, 234080
48482, -329, -994, -621, 277340, 499730, 257530
48502, -325, -984, -603, 284970, 474180, 279860
48522, -331, -1049, -631, 283920, 449890, 300160
48542, -346, -1162, -674, 277900, 430710, 312760
48562, -360, -1276, -699, 260890, 421540, 312760
48582, -366, -1359, -705, 226380, 404670, 313810
48602, -364, -1390, -702, 179900, 358610, 331450
48622, -361, -1362, -692, 120470, 306320, 348390
48642, -345, -1260, -641, 69300, 266630, 345450
48662, -320, -1138, -572, 44240, 229670, 328650
48682, -296, -1034, -518, 36610, 188230, 310310
48702, -285, -986, -497, 36050, 145320, 294910
48722, -276, -953, -477, 29890, 124110, 265860
48742, -273, -942, -460, 8190, 127400, 220360
48762, -276, -951, -458, -18900, 124880, 179550
48782, -275, -959, -454, -35490, 98910, 151480
48802, -271, -947, -452, -37800, 55930, 129220
48822, -265, -914, -438, -36540, 10220, 106680
48842, -248, -843, -402, -38780, -29330, 81130
48862, -235, -766, -369, -48160, -63350, 56980
48882, -225, -705, -356, -60200, -96110, 39830
48902, -212, -639, -329, -67760, -120610, 19600
48922, -202, -585, -308, -69300, -131530, -9660
48942, -196, -542, -290, -70770, -134890, -42280
48962, -194, -526, -286, -70140, -138600, -73500
48982, -199, -527, -289, -62230, -145180, -103600
49002, -207, -548, -297, -52360, -149310, -136220
49022, -220, -591, -317, -38710, -156240, -167720
49042, -232, -647, -337, -26320, -163170, -199150
49062, -253, -747, -378, -25410, -163660, -232610
49082, -289, -941, -457, -39130, -162750, -263480
49102, -326, -1123, -530, -69930, -165060, -287840
49122, -352, -1265, -609, -110180, -185500, -301000
49142, -371, -1298, -650, -140840, -242550, -294070
49162, -354, -1192, -617, -151270, -324450, -273070
49182, -330, -1077, -567, -185920, -367920, -272300
49202, -335, -1047, -579, -246820, -375620, -280490
49222, -330, -999, -563, -290780, -391650, -276570
49242, -313, -988, -561, -264180, -438480, -259350
49262, -327, -1073, -614, -279650, -450100, -249620
49282, -359, -1224, -699, -312760, -453320, -229180
49302, -385, -1415, -803, -303450, -468230, -210490
49322, -404, -1508, -833, -264880, -494480, -192150
49342, -392, -1422, -804, -213010, -534170, -167440
49362, -373, -1258, -741, -193550, -576660, -134680
49382, -345, -1102, -674, -185570, -608860, -95830
49402, -324, -1015, -641, -164430, -616490, -70280
49422, -289, -954, -600, -127890, -603750, -59640
49442, -270, -934, -576, -86450, -557900, -73010
49462, -254, -935, -561, -60480, -489650, -95340
49482, -249, -961, -557, -40320, -424480, -108990
49502, -249, -991, -559, -23660, -366450, -113470
49522, -234, -979, -543, 1540, -328300, -103530
49542, -218, -934, -522, 29470, -302890, -83090
49562, -200, -859, -478, 35490, -269640, -57120
49582, -182, -776, -436, 31360, -226310, -30520
49602, -162, -688, -391, 31290, -171640, -11200
49622, -150, -614, -357, 32830, -105840, 2940
49642, -137, -533, -315, 26670, -36050, 20370
49662, -136, -496, -302, 17290, 29050, 45430
49682, -143, -480, -305, 11620, 86100, 77840
49702, -151, -469, -312, 21070, 140770, 106750
49722, -158, -475, -331, 48090, 197260, 126770
49742, -187, -515, -367, 75670, 264250, 139860
49762, -231, -600, -425, 86100, 350630, 145950
49782, -279, -714, -489, 83300, 448140, 144830
49802, -322, -866, -567, 92050, 537740, 136500
49822, -363, -1057, -653, 120190, 602070, 130830
49842, -405, -1265, -768, 151340, 636790, 138320
49862, -407, -1295, -767, 165410, 654920, 151270
49882, -384, -1178, -709, 173530, 664300, 161070
49902, -362, -1029, -662, 182420, 636020, 195020
49922, -330, -889, -600, 201600, 587020, 236600
49942, -312, -825, -568, 238840, 558670, 255360
49962, -317, -857, -589, 280840, 532910, 276290
49982, -341, -990, -652, 321860, 502110, 304150
50002, -383, -1210, -747, 348180, 490280, 320040
50022, -416, -1464, -830, 338520, 513940, 312550
50042, -416, -1575, -802, 305690, 540890, 299670
50062, -406, -1522, -769, 252280, 520730, 315210
50082, -383, -1345, -706, 157430, 436030, 371420
50102, -347, -1168, -616, 70070, 342090, 418180
50122, -322, -1063, -560, 33320, 288400, 412300
50142, -305, -1007, -535, 36330, 243110, 392280
50162, -294, -978, -513, 59780, 208390, 315910
50182, -293, -992, -503, 50330, 217700, 264530
50202, -298, -1038, -508, 24430, 220430, 220150
50222, -303, -1076, -506, -25480, 218540, 179550
50242, -306, -1095, -508, -69090, 180600, 158760
50262, -301, -1061, -499, -81970, 105840, 151060
50282, -280, -976, -467, -75950, 31220, 136220
50302, -260, -886, -428, -62790, -27090, 112980
50322, -240, -791, -392, -52080, -60900, 79170
50342, -221, -696, -345, -57470, -70420, 36890
50362, -203, -603, -297, -71540, -77490, 2240
50382, -196, -546, -276, -85960, -92050, -22190
50402, -194, -513, -266, -100100, -111930, -41300
50422, -197, -505, -268, -101290, -139160, -60830
50442, -202, -510, -289, -77770, -175560, -83160
50462, -203, -519, -303, -44100, -204120, -112350
50482, -207, -523, -302, -16800, -205030, -157570
50502, -217, -556, -310, -4130, -189910, -206570
50522, -235, -624, -329, -7210, -178850, -245420
50542, -262, -742, -377, -25480, -178290, -274190
50562, -293, -896, -441, -52010, -189980, -293720
50582, -333, -1069, -525, -81340, -218680, -303520
50602, -370, -1235, -627, -103950, -269640, -303520
50622, -386, -1332, -682, -111650, -328300, -308350
50642, -377, -1294, -661, -139090, -363230, -324800
50662, -369, -1183, -619, -208110, -375620, -338520
50682, -365, -1103, -620, -276500, -411250, -323680
50702, -362, -1052, -620, -314720, -462210, -297080
50722, -354, -1043, -626, -304220, -502390, -284340
50742, -354, -1091, -643, -295750, -512540, -288680
50762, -370, -1183, -685, -285040, -525770, -279510
50782, -400, -1320, -770, -282940, -557830, -245420
50802, -411, -1362, -798, -279930, -596260, -205520
50822, -417, -1391, -845, -258580, -627620, -176820
50842, -390, -1293, -797, -197120, -659190, -157290
50862, -321, -1022, -561, -87080, -610400, -209930
50882, -379, -1047, -658, -101430, -609350, -191240
50902, -359, -1066, -731, -105420, -746200, -46620
50922, -292, -966, -652, -79870, -729890, -34370
50942, -247, -897, -579, -41020, -584990, -122010
50962, -237, -854, -492, -28140, -438410, -189770
50982, -267, -929, -547, -40740, -341740, -206920
51002, -226, -850, -486, 3570, -347690, -172760
51022, -203, -842, -481, 67970, -362530, -144970
51042, -209, -856, -495, 35210, -323120, -108780
51062, -187, -776, -440, 22470, -268870, -74550
51082, -165, -695, -384, 44450, -209860, -62510
51102, -157, -660, -374, 32340, -140210, -50960
51122, -142, -610, -351, 9870, -83230, -21000
51142, -142, -589, -347, 1750, -22540, 6300
51162, -154, -584, -345, -11410, 55300, 28280
51182, -162, -556, -327, -19460, 135800, 47040
51202, -157, -528, -309, 8540, 183330, 72310
51222, -163, -538, -322, 41020, 204540, 109480
51242, -190, -607, -376, 45500, 228270, 152250
51262, -216, -673, -426, 37730, 274260, 178850
51282, -254, -754, -471, 43050, 347550, 172690
51302, -298, -863, -517, 42350, 443730, 145110
51322, -337, -1001, -584, 24220, 539560, 115640
51342, -355, -1132, -640, 22540, 593460, 99960
51362, -363, -1240, -676, 58030, 591360, 106400
51382, -378, -1313, -731, 85190, 563500, 130480
51402, -391, -1282, -737, 77000, 543130, 151480
51422, -369, -1150, -663, 73780, 550900, 138600
51442, -345, -1064, -630, 121730, 547960, 111300
51462, -334, -1058, -637, 201670, 500010, 113610
51482, -342, -1107, -664, 258720, 465920, 118790
51502, -359, -1201, -694, 265230, 476280, 109900
51522, -357, -1262, -691, 250740, 492520, 103810
51542, -355, -1340, -718, 245350, 478450, 112490
51562, -350, -1367, -722, 237720, 426650, 141960
51582, -329, -1294, -667, 238140, 355460, 177380
51602, -312, -1210, -631, 239260, 291410, 200760
51622, -297, -1127, -604, 226870, 231280, 223230
51642, -286, -1051, -564, 212170, 198310, 226450
51662, -272, -988, -512, 198660, 203770, 200760
51682, -260, -939, -466, 189000, 208040, 176610
51702, -259, -933, -456, 172620, 187740, 171780
51722, -262, -945, -472, 137060, 150150, 182770
51742, -258, -935, -470, 104510, 110250, 192850
51762, -251, -901, -452, 87360, 88480, 181860
51782, -243, -838, -410, 76650, 83370, 154490
51802, -222, -765, -374, 69650, 77840, 127540
51822, -218, -717, -361, 60690, 60830, 110740
51842, -212, -669, -335, 44800, 36750, 108150
51862, -201, -622, -304, 17220, 41510, 83720
51882, -205, -618, -305, -3570, 49070, 52780
51902, -196, -594, -299, -16590, 29400, 43960
51922, -196, -603, -317, -13650, -13510, 16380
51942, -208, -641, -332, -20580, -840, -16940
51962, -221, -680, -337, -20020, 25830, -66220
51982, -233, -731, -349, -16940, 40670, -109830
52002, -240, -783, -358, -7770, 24710, -133840
52022, -251, -862, -388, -16450, -6160, -143500
52042, -275, -981, -454, -53760, -38220, -144060
52062, -298, -1070, -505, -93240, -66920, -149100
52082, -303, -1098, -523, -107240, -93170, -168560
52102, -295, -1051, -491, -101570, -122710, -189770
52122, -292, -1039, -489, -123480, -147910, -202510
52142, -299, -1071, -519, -178710, -168210, -204470
52162, -311, -1118, -556, -220710, -190190, -206780
52182, -323, -1159, -583, -227360, -220220, -211610
52202, -322, -1181, -590, -216790, -247800, -221620
52222, -331, -1241, -630, -206500, -286300, -218050
52242, -332, -1280, -652, -232330, -311010, -212520
52262, -343, -1296, -678, -264110, -331940, -201600
52282, -347, -1269, -688, -273350, -387030, -160720
52302, -332, -1196, -668, -253610, -443100, -121590
52322, -311, -1121, -636, -236950, -457310, -106960
52342, -299, -1080, -615, -233800, -435750, -108220
52362, -297, -1071, -606, -218960, -414330, -107310
52382, -293, -1067, -599, -176610, -419650, -91000
52402, -286, -1071, -602, -133770, -428820, -69860
52422, -280, -1071, -602, -115640, -417480, -55230
52442, -265, -1031, -581, -101150, -392280, -46760
52462, -244, -949, -532, -80080, -357840, -44870
52482, -219, -855, -478, -57120, -323120, -40250
52502, -205, -789, -446, -45710, -288470, -27440
52522, -188, -718, -407, -44660, -248430, -10850
52542, -177, -667, -386, -32550, -203840, 1470
52562, -161, -622, -357, -12040, -155820, 10710
52582, -154, -597, -344, 10640, -101780, 17010
52602, -152, -585, -338, 19250, -39060, 23870
52622, -158, -593, -345, 19460, 28700, 32060
52642, -171, -618, -358, 13580, 95200, 43190
52662, -182, -639, -370, 18690, 158480, 49630
52682, -197, -668, -384, 35000, 212380, 55230
52702, -212, -724, -414, 53900, 257670, 63070
52722, -239, -808, -466, 66920, 300230, 71960
52742, -262, -886, -502, 76720, 346290, 75180
52762, -284, -954, -540, 93940, 385770, 75390
52782, -292, -983, -552, 118440, 410340, 78400
52802, -298, -991, -563, 141470, 424620, 83860
52822, -303, -988, -570, 152110, 432740, 94850
52842, -300, -967, -562, 166110, 431900, 110040
52862, -297, -964, -563, 190960, 425810, 121590
52882, -298, -996, -585, 212450, 414890, 135170
52902, -313, -1070, -617, 231700, 401450, 149590
52922, -322, -1146, -650, 247940, 392840, 157710
52942, -328, -1220, -671, 262990, 386190, 159600
52962, -330, -1282, -671, 270830, 369250, 166950
52982, -334, -1330, -682, 257460, 338100, 187180
53002, -335, -1337, -688, 220080, 293090, 217420
53022, -323, -1291, -653, 181020, 249480, 237930
53042, -305, -1209, -610, 165130, 213360, 238770
53062, -291, -1141, -577, 167160, 170730, 237230
53082, -279, -1094, -550, 165480, 129780, 235830
53102, -277, -1067, -535, 150640, 103600, 228690
53122, -276, -1050, -522, 124320, 94360, 213500
53142, -276, -1045, -509, 94010, 92750, 192150
53162, -277, -1036, -503, 68740, 80430, 174650
53182, -270, -1016, -495, 53130, 54810, 159810
53202, -260, -964, -470, 50960, 20160, 145320
53222, -244, -887, -421, 56350, -12670, 127960
53242, -235, -828, -398, 52920, -36890, 108710
53262, -233, -800, -398, 22820, -56000, 97440
53282, -228, -763, -387, -13020, -66920, 84490
53302, -218, -714, -366, -28840, -70910, 60620
53322, -208, -658, -335, -21910, -77700, 32620
53342, -203, -625, -318, -10150, -84420, 4130
53362, -198, -592, -294, -14910, -84980, -24080
53382, -199, -581, -291, -31780, -84070, -49980
53402, -201, -592, -304, -43470, -100450, -62440
53422, -202, -604, -313, -45360, -125020, -69370
53442, -210, -646, -334, -50330, -134820, -84910
53462, -225, -722, -365, -62930, -128590, -106050
53482, -240, -800, -394, -84140, -103810, -137620
53502, -260, -887, -419, -99050, -78820, -172480
53522, -268, -947, -433, -99610, -76160, -195160
53542, -282, -1025, -473, -101500, -96250, -203980
53562, -300, -1109, -533, -129360, -134470, -193480
53582, -319, -1184, -591, -169330, -182980, -171850
53602, -313, -1183, -594, -193270, -230790, -153020
53622, -302, -1146, -583, -202020, -259560, -152110
53642, -287, -1061, -536, -222950, -257530, -169400
53662, -298, -1066, -561, -239680, -259560, -175490
53682, -305, -1104, -588, -254030, -321650, -132230
53702, -313, -1152, -608, -223580, -356230, -113960
53722, -321, -1231, -650, -216020, -370790, -103250
53742, -322, -1270, -666, -222180, -372050, -96880
53762, -341, -1347, -718, -233170, -379050, -81200
53782, -361, -1435, -822, -202160, -397880, -64120
53802, -294, -1192, -599, -126350, -397740, -73780
53822, -309, -1162, -631, -126630, -406910, -54180
53842, -308, -1148, -662, -136780, -452690, 9800
53862, -274, -1062, -613, -101780, -429590, 7210
53882, -240, -957, -534, -64540, -356440, -30660
53902, -224, -882, -475, -56280, -303170, -34510
53922, -230, -881, -491, -56700, -269920, -18200
53942, -211, -839, -475, -36050, -255150, 3710
53962, -186, -789, -442, 7070, -220640, 6020
53982, -180, -756, -409, 19320, -157220, 6790
54002, -176, -736, -398, 17710, -95200, 19810
54022, -178, -715, -394, 11270, -46970, 42210
54042, -178, -706, -397, 10010, 1260, 60270
54062, -174, -683, -389, 17570, 51590, 73010
54082, -173, -664, -386, 37100, 103390, 82110
54102, -184, -658, -392, 45290, 163660, 91560
54122, -201, -660, -391, 43960, 233030, 96320
54142, -209, -660, -390, 56910, 287420, 102200
54162, -218, -669, -406, 85750, 317520, 115360
54182, -233, -705, -436, 106890, 346430, 128030
54202, -254, -760, -477, 113400, 390740, 131250
54222, -282, -808, -509, 124740, 442330, 124670
54242, -296, -847, -525, 155470, 485310, 114520
54262, -301, -893, -538, 196350, 502740, 116410
54282, -312, -971, -583, 221900, 496650, 138110
54302, -322, -1035, -614, 225400, 486570, 166530
54322, -328, -1084, -637, 227220, 481040, 186830
54342, -329, -1117, -644, 235760, 467950, 205940
54362, -329, -1127, -631, 244090, 444710, 225260
54382, -324, -1126, -624, 245140, 414470, 244090
54402, -315, -1119, -612, 237860, 373660, 267400
54422, -310, -1130, -608, 229250, 328720, 289730
54442, -315, -1153, -616, 210350, 296730, 302050
54462, -321, -1179, -617, 180670, 285530, 296520
54482, -320, -1195, -603, 154770, 278320, 280140
54502, -316, -1207, -588, 132510, 251370, 271670
54522, -319, -1230, -599, 104860, 203420, 275450
54542, -317, -1228, -602, 75250, 154000, 276990
54562, -305, -1185, -576, 49980, 122150, 260330
54582, -296, -1128, -539, 33740, 100450, 234150
54602, -289, -1078, -520, 12530, 76580, 211540
54622, -277, -1024, -501, -3290, 41230, 192920
54642, -266, -964, -468, -6370, 10850, 166600
54662, -254, -894, -419, -6300, -1260, 127680
54682, -243, -845, -394, -11620, -19390, 96250
54702, -246, -833, -406, -31990, -58100, 86310
54722, -239, -795, -398, -55650, -98630, 81270
54742, -235, -755, -385, -57260, -126000, 62440
54762, -226, -705, -358, -48510, -139020, 33040
54782, -209, -646, -326, -37520, -140420, -7210
54802, -208, -632, -325, -37030, -140070, -45010
54822, -214, -630, -327, -44730, -151620, -63630
54842, -217, -628, -324, -55720, -160090, -82600
54862, -222, -643, -336, -61390, -166950, -107940
54882, -230, -681, -352, -63700, -181790, -127120
54902, -236, -712, -365, -71330, -188370, -150150
54922, -252, -775, -399, -77980, -191170, -174440
54942, -259, -823, -417, -85120, -198870, -190330
54962, -266, -874, -429, -93800, -198730, -213570
54982, -276, -917, -439, -125090, -184870, -241010
55002, -294, -966, -478, -160720, -192220, -248080
55022, -298, -982, -500, -177520, -244440, -224630
55042, -303, -1030, -541, -183330, -306600, -198730
55062, -304, -1073, -561, -201530, -336840, -189700
55082, -317, -1137, -607, -228900, -334180, -196280
55102, -319, -1176, -613, -252140, -326760, -204610
55122, -338, -1250, -652, -253680, -338590, -201600
55142, -366, -1354, -739, -255990, -370020, -179200
55162, -357, -1343, -736, -252210, -424830, -138250
55182, -341, -1279, -707, -218330, -465990, -117740
55202, -327, -1193, -662, -191590, -481180, -108570
55222, -320, -1117, -637, -188580, -485380, -91630
55242, -312, -1084, -638, -194600, -488600, -68040
55262, -302, -1069, -632, -177520, -499730, -40390
55282, -286, -1044, -611, -133420, -491890, -33110
55302, -268, -1010, -576, -74690, -457940, -52570
55322, -246, -979, -548, -21770, -424410, -69720
55342, -242, -982, -545, -1120, -397250, -66290
55362, -242, -991, -541, -20930, -344610, -63420
55382, -237, -987, -545, -27720, -303310, -47460
55402, -225, -945, -517, 3010, -290780, -21070
55422, -205, -884, -483, 36820, -261590, -11130
55442, -193, -826, -457, 37800, -148050, -3500
55462, -181, -757, -417, 30590, -80150, 1750
55482, -171, -693, -379, 28560, -17990, 11270
55502, -163, -640, -348, 32410, 21490, 37870
55522, -161, -614, -347, 30170, 53270, 73990
55542, -167, -604, -354, 22400, 95200, 105000
55562, -177, -609, -371, 30240, 145670, 122500
55582, -185, -603, -375, 55510, 204330, 123200
55602, -194, -601, -375, 83650, 271600, 112770
55622, -214, -629, -392, 91490, 338170, 107590
55642, -240, -699, -434, 87220, 396480, 108920
55662, -272, -788, -488, 93100, 446810, 107660
55682, -289, -859, -514, 118090, 489020, 100450
55702, -313, -961, -562, 134540, 516320, 103880
55722, -342, -1074, -618, 130130, 537180, 113190
55742, -347, -1119, -629, 128800, 545370, 121030
55762, -338, -1124, -648, 157920, 509320, 144760
55782, -319, -1058, -625, 212590, 451780, 173950
55802, -315, -999, -600, 240590, 432390, 181720
55822, -306, -960, -580, 243530, 438900, 177520
55842, -296, -944, -555, 258440, 430430, 181650
55862, -305, -1016, -586, 268800, 402220, 200130
55882, -330, -1160, -654, 264110, 374360, 217630
55902, -342, -1280, -679, 260190, 361690, 216650
55922, -340, -1364, -682, 243320, 345590, 213220
55942, -347, -1412, -709, 206570, 287770, 240520
55962, -335, -1359, -690, 168070, 219310, 269290
55982, -315, -1242, -619, 143080, 184940, 261240
56002, -294, -1129, -550, 125580, 158760, 244090
56022, -283, -1051, -519, 100240, 120190, 239190
56042, -275, -1018, -518, 82110, 73920, 240170
56062, -264, -980, -496, 87290, 44520, 223090
56082, -259, -961, -472, 88760, 46270, 183960
56102, -260, -959, -455, 68670, 53130, 148260
56122, -266, -967, -464, 36330, 40530, 130480
56142, -263, -953, -461, 10500, 13860, 117460
56162, -253, -902, -435, 8820, -19530, 99330
56182, -241, -831, -398, 15330, -52850, 78540
56202, -227, -756, -364, 6650, -82250, 61040
56222, -226, -723, -371, -14980, -114240, 54810
56242, -208, -657, -347, -26320, -138180, 45010
56262, -193, -597, -311, -30310, -130340, 9380
56282, -189, -558, -287, -43680, -110040, -26530
56302, -192, -551, -287, -59360, -102130, -48440
56322, -198, -563, -293, -65940, -105560, -66360
56342, -196, -551, -280, -68180, -101500, -96250
56362, -210, -605, -308, -62860, -103740, -122640
56382, -228, -667, -344, -61250, -119560, -134470
56402, -225, -705, -345, -48020, -131110, -158060
56422, -242, -814, -383, -52780, -120330, -195650
56442, -279, -981, -462, -92820, -115850, -208180
56462, -310, -1149, -551, -134610, -134890, -202510
56482, -335, -1276, -619, -156100, -169470, -199500
56502, -341, -1319, -636, -171290, -204750, -201320
56522, -346, -1293, -643, -195510, -233450, -207620
56542, -328, -1168, -609, -219730, -287140, -191660
56562, -301, -1048, -562, -222670, -351400, -167440
56582, -300, -1015, -557, -240660, -376250, -159670
56602, -315, -1084, -603, -274120, -382410, -148820
56622, -322, -1168, -645, -280350, -397530, -131740
56642, -327, -1231, -665, -248080, -414120, -121450
56662, -333, -1259, -674, -217490, -419440, -116270
56682, -338, -1254, -680, -209230, -416850, -112350
56702, -329, -1207, -667, -189910, -441000, -90720
56722, -318, -1154, -649, -144900, -486080, -55650
56742, -299, -1108, -632, -114730, -506870, -29470
56762, -285, -1073, -619, -110110, -485310, -24500
56782, -271, -1038, -594, -108430, -438200, -34300
56802, -254, -998, -556, -78890, -395640, -45640
56822, -248, -992, -543, -39480, -356090, -57050
56842, -244, -997, -545, -20790, -317730, -58800
56862, -228, -959, -522, -1050, -293020, -46830
56882, -211, -891, -482, 24920, -269500, -33600
56902, -194, -819, -443, 31010, -233100, -20370
56922, -186, -769, -426, 20370, -190120, -1960
56942, -178, -716, -397, 3920, -140140, 16590
56962, -167, -656, -369, 5810, -86660, 28070
56982, -155, -597, -340, 23730, -31920, 32620
57002, -162, -586, -340, 32550, 23730, 41370
57022, -166, -581, -340, 30450, 78190, 57400
57042, -169, -570, -338, 37100, 129780, 72940
57062, -179, -575, -348, 56420, 176960, 86100
57082, -198, -615, -374, 64960, 227570, 98490
57102, -225, -682, -411, 55790, 288680, 105910
57122, -253, -766, -461, 47320, 350490, 107380
57142, -279, -852, -507, 60130, 398510, 105280
57162, -301, -947, -547, 90580, 437430, 96810
57182, -323, -1061, -595, 134540, 500570, 81480
57202, -344, -1170, -649, 134540, 505890, 94360
57222, -343, -1176, -654, 150150, 482790, 115920
57242, -330, -1106, -629, 169750, 456330, 129710
57262, -316, -1026, -597, 187810, 440090, 134260
57282, -304, -987, -578, 212170, 420000, 141610
57302, -296, -986, -572, 241500, 390880, 152880
57322, -305, -1056, -610, 264600, 360920, 165340
57342, -325, -1153, -651, 274330, 351680, 164220
57362, -333, -1248, -666, 275450, 354130, 152810
57382, -336, -1341, -681, 260750, 332850, 159040
57402, -340, -1393, -693, 220220, 283360, 186060
57422, -331, -1355, -680, 176890, 223440, 213220
57442, -311, -1252, -627, 160090, 166320, 223790
57462, -289, -1145, -572, 160020, 114940, 223860
57482, -279, -1086, -552, 156730, 76510, 218330
57502, -266, -1021, -520, 150570, 62090, 198310
57522, -259, -977, -484, 140070, 65380, 166810
57542, -254, -959, -459, 118580, 62300, 144480
57562, -264, -986, -472, 82950, 43470, 138040
57582, -274, -1024, -501, 48860, 14070, 135170
57602, -263, -980, -474, 48230, -13580, 114940
57622, -251, -916, -439, 61110, -42210, 92120
57642, -237, -857, -418, 53060, -70280, 78050
57662, -230, -793, -393, 30940, -89180, 65450
57682, -213, -716, -353, -560, -81270, 36470
57702, -203, -645, -318, -15680, -83160, 14280
57722, -199, -601, -303, -22470, -105420, 10360
57742, -188, -570, -297, -39900, -118020, -1260
57762, -187, -561, -300, -50190, -125160, -14700
57782, -190, -561, -303, -61110, -116270, -34090
57802, -188, -553, -290, -63560, -93170, -67550
57822, -198, -576, -293, -63350, -72030, -100520
57842, -205, -619, -306, -64680, -63140, -125090
57862, -222, -721, -349, -71610, -61670, -144900
57882, -248, -846, -399, -86100, -68810, -154350
57902, -268, -968, -455, -102690, -85680, -157150
57922, -285, -1072, -503, -119070, -109480, -158900
57942, -302, -1162, -543, -135520, -139440, -158900
57962, -313, -1221, -583, -168280, -169890, -155610
57982, -323, -1248, -620, -207200, -203910, -146090
58002, -316, -1195, -604, -231910, -238560, -138320
58022, -302, -1123, -581, -230090, -272720, -133980
58042, -290, -1038, -533, -229950, -294560, -132370
58062, -295, -1060, -562, -233870, -312970, -125300
58082, -298, -1121, -589, -231420, -337680, -110320
58102, -325, -1257, -662, -225120, -356860, -92820
58122, -343, -1390, -741, -223930, -372540, -71610
58142, -346, -1428, -750, -213290, -375900, -67830
58162, -345, -1396, -738, -194600, -372470, -73640
58182, -328, -1280, -678, -161000, -397250, -58380
58202, -319, -1200, -663, -126840, -433790, -31360
58222, -300, -1122, -643, -112770, -462630, 700
58242, -266, -1019, -580, -93870, -453530, 7910
58262, -242, -924, -506, -72100, -392980, -21000
58282, -238, -910, -508, -53620, -345450, -31710
58302, -229, -898, -503, -41090, -325570, -16520
58322, -219, -894, -500, -23870, -296870, -9030
58342, -210, -879, -485, -1470, -254870, -10430
58362, -203, -856, -463, 18970, -204610, -11620
58382, -195, -812, -431, 24010, -146650, -9800
58402, -187, -776, -419, 25340, -103460, 4900
58422, -173, -719, -392, 24780, -76510, 33320
58442, -173, -681, -382, 23170, -38850, 56350
58462, -169, -640, -366, 18340, 14140, 71820
58482, -173, -614, -360, 23590, 71610, 82180
58502, -175, -578, -343, 33250, 128940, 90160
58522, -183, -570, -344, 45640, 186620, 93100
58542, -189, -582, -356, 54810, 238210, 98070
58562, -209, -624, -388, 69580, 280980, 105070
58582, -233, -684, -426, 85890, 325150, 109480
58602, -261, -757, -465, 101570, 378770, 104510
58622, -285, -843, -508, 119770, 432670, 94570
58642, -307, -920, -537, 136640, 478660, 85120
58662, -321, -1008, -577, 150710, 507710, 83860
58682, -334, -1096, -633, 161280, 509110, 98560
58702, -340, -1150, -660, 177660, 488880, 121940
58722, -336, -1165, -659, 203840, 468090, 138040
58742, -327, -1146, -646, 224140, 450660, 150080
58762, -320, -1135, -635, 231770, 428890, 164710
58782, -320, -1170, -645, 238350, 402640, 177660
58802, -327, -1230, -666, 247240, 367360, 193620
58822, -330, -1261, -658, 253330, 329560, 210420
58842, -323, -1248, -645, 240240, 304990, 217210
58862, -306, -1186, -605, 209650, 282730, 218540
58882, -291, -1130, -574, 194250, 239470, 227010
58902, -286, -1109, -560, 189070, 186130, 238980
58922, -288, -1122, -563, 171150, 144550, 245280
58942, -295, -1172, -590, 132720, 101430, 218820
58962, -301, -1228, -602, 128870, 82180, 197050
58982, -299, -1227, -580, 118160, 65030, 172480
59002, -301, -1210, -568, 85820, 34720, 160790
59022, -294, -1163, -559, 47740, -7350, 156450
59042, -284, -1089, -530, 24010, -38780, 139930
59062, -267, -986, -475, 11690, -58870, 112770
59082, -251, -877, -428, 12810, -87990, 90510
59102, -229, -768, -377, 22680, -125020, 75460
59122, -216, -715, -365, 21210, -153860, 63910
59142, -200, -647, -331, 11480, -160930, 44520
59162, -195, -608, -309, -20370, -142660, 16870
59182, -204, -613, -320, -66570, -117040, -10710
59202, -200, -581, -304, -65590, -121800, -31500
59222, -194, -562, -295, -36540, -140280, -53270
59242, -197, -571, -298, -28490, -147420, -75320
59262, -205, -596, -310, -34930, -147000, -96600
59282, -195, -582, -297, -36610, -146580, -120190
59302, -200, -592, -288, -53550, -145600, -135520
59322, -214, -677, -334, -98770, -145180, -136150
59342, -244, -802, -413, -127330, -168770, -119560
59362, -247, -867, -430, -136710, -164780, -137690
59382, -259, -942, -446, -155540, -120540, -189700
59402, -299, -1090, -507, -170380, -126910, -195090
59422, -318, -1213, -587, -180180, -184940, -172970
59442, -320, -1250, -614, -168560, -259350, -147210
59462, -316, -1230, -611, -192990, -300510, -129080
59482, -328, -1213, -637, -266140, -309120, -118510
59502, -319, -1164, -633, -270480, -354550, -87850
59522, -308, -1136, -621, -252070, -380170, -76650
59542, -287, -1061, -552, -219170, -363370, -98280
59562, -305, -1115, -588, -217700, -353290, -101500
59582, -326, -1230, -671, -212240, -396410, -57890
59602, -320, -1269, -684, -156660, -439530, -27720
59622, -338, -1370, -737, -140000, -434770, -23940
59642, -340, -1379, -734, -148820, -411250, -26110
59662, -333, -1356, -736, -127750, -401450, -32620
59682, -310, -1261, -681, -76370, -425250, -17150
59702, -293, -1176, -639, -45780, -418250, -14910
59722, -280, -1136, -638, -38150, -402430, -10710
59742, -251, -1049, -577, -3360, -390880, -3570
59762, -231, -965, -520, 16450, -334880, -20230
59782, -219, -904, -489, 15400, -286230, -18760
59802, -215, -887, -495, 6160, -253890, 1820
59822, -204, -849, -475, 2940, -208810, 12530
59842, -183, -786, -441, 41090, -164990, 12670
59862, -166, -721, -394, 74900, -114590, 13300
59882, -169, -691, -378, 63700, -48510, 23240
59902, -167, -658, -369, 33180, 10290, 49420
59922, -165, -630, -367, 28210, 53060, 78820
59942, -164, -594, -356, 38780, 96040, 102200
59962, -164, -562, -344, 51520, 151270, 116830
59982, -181, -567, -361, 54670, 210630, 131880
60002, -198, -573, -376, 55230, 274610, 143080
60022, -217, -590, -392, 71610, 339780, 145880
60042, -235, -612, -413, 98630, 398580, 145110
60062, -264, -682, -462, 127820, 448070, 145390
60082, -289, -759, -503, 145390, 498680, 144130
60102, -323, -866, -562, 159250, 551880, 139020
60122, -351, -974, -619, 173670, 593460, 140210
60142, -359, -1058, -649, 197820, 612570, 147980
60162, -360, -1132, -676, 227710, 605780, 166040
60182, -362, -1161, -691, 237650, 577850, 200760
60202, -348, -1111, -662, 238630, 537740, 241150
60222, -329, -1037, -613, 255500, 497980, 269780
60242, -322, -1014, -599, 261240, 465290, 289870
60262, -326, -1051, -615, 258790, 429100, 312480
60282, -331, -1155, -642, 252420, 401450, 324450
60302, -348, -1270, -677, 240870, 383950, 323050
60322, -353, -1347, -683, 223020, 361200, 324170
60342, -360, -1393, -693, 182420, 338240, 322910
60362, -361, -1384, -689, 125090, 302190, 326060
60382, -343, -1301, -637, 72940, 254660, 329490
60402, -328, -1219, -596, 38710, 213150, 315140
60422, -310, -1139, -555, 15400, 164220, 301350
60442, -298, -1096, -540, 5810, 115500, 283080
60462, -291, -1058, -518, -2380, 80430, 256060
60482, -280, -1016, -481, -12670, 64330, 215600
60502, -282, -1009, -471, -25200, 55160, 169680
60522, -278, -1000, -472, -47530, 30380, 137550
60542, -276, -980, -474, -57610, -22260, 122920
60562, -269, -930, -450, -57470, -76580, 107870
60582, -256, -853, -410, -62370, -105280, 74970
60602, -246, -797, -391, -63140, -126980, 36050
60622, -240, -744, -378, -66290, -163940, 15960
60642, -228, -678, -352, -74410, -201040, 2520
60662, -219, -619, -330, -79310, -222460, -21840
60682, -214, -582, -313, -87500, -231000, -49210
60702, -210, -545, -297, -98070, -234640, -111230
60722, -205, -518, -285, -88480, -249060, -135170
60742, -203, -506, -287, -85750, -264250, -151480
60762, -207, -522, -299, -100450, -264250, -169960
60782, -211, -536, -302, -112630, -247240, -202230
60802, -220, -570, -307, -119420, -226310, -239120
60822, -239, -651, -340, -127680, -223510, -257530
60842, -253, -739, -370, -137550, -238910, -261240
60862, -276, -877, -435, -153370, -264390, -256480
60882, -317, -1079, -546, -182420, -295400, -242480
60902, -352, -1297, -663, -211680, -319340, -235550
60922, -365, -1416, -718, -233940, -331170, -242550
60942, -379, -1384, -728, -257460, -379470, -217210
60962, -370, -1280, -718, -272510, -458780, -169400
60982, -356, -1185, -690, -258580, -510720, -141820
61002, -320, -1045, -587, -241080, -522830, -134540
61022, -333, -1083, -637, -237230, -523950, -127680
61042, -341, -1103, -645, -231420, -549080, -92260
61062, -358, -1236, -752, -195790, -569590, -70000
61082, -358, -1314, -782, -159180, -551530, -80080
61102, -349, -1325, -721, -106750, -503790, -123550
61122, -362, -1309, -740, -58870, -513240, -126980
61142, -344, -1281, -749, -22050, -571900, -84700
61162, -306, -1249, -758, -6930, -577640, -71330
61182, -281, -1132, -633, -20510, -458220, -123760
61202, -308, -1082, -605, -50330, -336630, -176190
61222, -269, -1010, -590, 104370, -456470, -96460
61242, -225, -950, -563, 154210, -503370, -60340
61262, -205, -901, -523, 72310, -381290, -91980
61282, -199, -854, -474, 4900, -237090, -120540
61302, -222, -846, -461, -33110, -139860, -116830
61322, -200, -784, -434, -2730, -121520, -87150
61342, -157, -706, -390, 88410, -155960, -50470
61362, -156, -726, -425, 107730, -141260, -12880
61382, -166, -699, -406, 65380, -52360, 11060
61402, -153, -627, -352, 67060, 46480, 15330
61422, -156, -593, -326, 70490, 116340, 33530
61442, -168, -597, -341, 35490, 168140, 72030
61462, -172, -603, -368, 10500, 195650, 120680
61482, -183, -608, -393, 28070, 223790, 153160
61502, -203, -601, -389, 45640, 294770, 154980
61522, -219, -595, -375, 53200, 386540, 144270
61542, -237, -636, -401, 62440, 438900, 158130
61562, -275, -741, -468, 61460, 462560, 186620
61582, -307, -853, -533, 63560, 495180, 194320
61602, -344, -973, -618, 86030, 537600, 176400
61622, -381, -1075, -669, 116830, 583870, 150010
61642, -390, -1124, -657, 139440, 649670, 108920
61662, -374, -1154, -660, 146720, 684600, 90580
61682, -361, -1150, -667, 163800, 628950, 133840
61702, -368, -1162, -700, 190820, 547050, 189770
61722, -364, -1126, -696, 196070, 520030, 202650
61742, -347, -1073, -649, 231210, 522480, 181440
61762, -331, -1094, -637, 287490, 505260, 171710
61782, -340, -1208, -698, 306740, 461230, 192710
61802, -356, -1314, -725, 310100, 412230, 221130
61822, -355, -1343, -696, 295890, 400890, 222460
61842, -351, -1333, -683, 246330, 389270, 227220
61862, -333, -1284, -655, 190960, 336000, 253960
61882, -313, -1205, -614, 162260, 268660, 271600
61902, -294, -1115, -565, 174790, 193970, 283710
61922, -278, -1048, -525, 180250, 141960, 282240
61942, -282, -1044, -540, 144550, 124390, 268520
61962, -277, -1017, -514, 107100, 124390, 245070
61982, -272, -992, -477, 95410, 133840, 204190
62002, -275, -991, -466, 81130, 130830, 171710
62022, -271, -966, -454, 49910, 100870, 160860
62042, -257, -917, -444, 25200, 50330, 157850
62062, -241, -851, -413, 20160, -8050, 155610
62082, -243, -827, -420, 21700, -51660, 146230
62102, -224, -760, -394, 7700, -66010, 123900
62122, -210, -673, -340, -6440, -45710, 75670
62142, -206, -612, -297, -16940, -17780, 22890
62162, -195, -562, -272, -26320, -15120, -9170
62182, -193, -540, -268, -29890, -47530, -16940
62202, -190, -534, -278, -37030, -91560, -16870
62222, -189, -537, -286, -46690, -120190, -28420
62242, -202, -584, -312, -54950, -124810, -55090
62262, -219, -646, -336, -60620, -113540, -88550
62282, -227, -690, -343, -57610, -92260, -132020
62302, -240, -760, -356, -45570, -67690, -184030
62322, -259, -855, -384, -51380, -52220, -221970
62342, -288, -988, -452, -86030, -55510, -236810
62362, -321, -1139, -540, -123200, -94500, -229390
62382, -343, -1281, -623, -131810, -168350, -209300
62402, -351, -1353, -668, -137760, -232610, -201180
62422, -345, -1304, -654, -170870, -261800, -212450
62442, -339, -1211, -625, -224000, -269920, -229880
62462, -326, -1095, -577, -277690, -336700, -218190
62482, -332, -1096, -604, -296520, -384650, -194040
62502, -331, -1126, -634, -248360, -437290, -176750
62522, -319, -1155, -628, -209300, -448910, -183260
62542, -335, -1234, -666, -233590, -438270, -177170
62562, -350, -1275, -699, -270340, -452550, -140910
62582, -364, -1320, -756, -269780, -490770, -98490
62602, -360, -1295, -738, -209510, -525350, -71400
62622, -335, -1213, -695, -137270, -532700, -74340
62642, -306, -1111, -636, -94360, -519750, -84770
62662, -283, -1018, -583, -92260, -491610, -84140
62682, -278, -992, -583, -101010, -470470, -64400
62702, -271, -985, -578, -79940, -456750, -43050
62722, -253, -975, -569, -37590, -430010, -39340
62742, -234, -943, -536, 3990, -384510, -49000
62762, -215, -906, -506, 20020, -313460, -66990
62782, -203, -858, -468, 8260, -235480, -75250
62802, -192, -808, -441, 910, -182420, -59990
62822, -178, -746, -406, 7140, -152530, -27860
62842, -169, -696, -385, 17220, -127540, 9800
62862, -160, -660, -374, 29470, -94850, 43820
62882, -159, -643, -382, 36120, -43330, 67340
62902, -155, -582, -349, 39060, 30800, 76440
62922, -159, -559, -340, 41370, 114940, 76930
62942, -168, -546, -334, 41090, 196420, 77770
62962, -184, -564, -347, 43820, 263270, 87080
62982, -203, -603, -376, 45570, 318570, 101430
63002, -225, -662, -414, 54880, 369600, 112000
63022, -254, -741, -457, 68530, 420980, 116550
63042, -285, -845, -508, 81690, 471730, 116480
63062, -318, -976, -574, 95340, 510300, 118370
63082, -350, -1112, -654, 113610, 531090, 121730
63102, -358, -1151, -673, 145040, 538230, 120470
63122, -348, -1105, -648, 186200, 535220, 118440
63142, -335, -1050, -624, 211960, 525630, 126770
63162, -328, -1030, -611, 218400, 512190, 143990
63182, -327, -1045, -619, 219940, 491750, 164850
63202, -328, -1082, -638, 233100, 459340, 186760
63222, -333, -1144, -659, 262570, 426440, 199150
63242, -337, -1230, -674, 291130, 401310, 201460
63262, -343, -1319, -699, 295680, 373170, 210420
63282, -339, -1316, -686, 269640, 340410, 227360
63302, -324, -1245, -638, 229530, 306390, 242130
63322, -317, -1207, -613, 188510, 266000, 255780
63342, -318, -1231, -620, 154700, 220500, 266070
63362, -313, -1245, -626, 136640, 174300, 266980
63382, -304, -1218, -609, 144690, 129570, 255570
63402, -293, -1180, -577, 159600, 95830, 234010
63422, -291, -1154, -553, 143080, 82250, 208950
63442, -289, -1113, -534, 84420, 82670, 185430
63462, -281, -1040, -494, 26810, 74060, 164570
63482, -266, -946, -447, 6860, 34020, 154280
63502, -250, -866, -420, 12950, -26600, 152670
63522, -235, -797, -399, 17780, -76720, 145110
63542, -219, -731, -374, 16310, -96950, 121870
63562, -199, -645, -327, 10010, -89950, 84280
63582, -197, -615, -316, 5250, -80920, 51170
63602, -190, -576, -287, -8400, -70630, 24360
63622, -188, -561, -277, -29050, -55580, -5740
63642, -200, -578, -296, -47320, -66570, -14980
63662, -195, -574, -301, -61040, -85890, -21980
63682, -197, -586, -312, -51590, -103880, -40460
63702, -205, -620, -327, -37170, -109550, -64890
63722, -209, -636, -318, -35140, -88480, -105420
63742, -223, -685, -327, -40320, -63000, -149240
63762, -237, -766, -358, -59640, -55510, -173530
63782, -265, -903, -421, -84420, -66640, -184310
63802, -287, -1024, -480, -112210, -92750, -183470
63822, -312, -1140, -558, -134540, -127750, -180950
63842, -317, -1169, -574, -152320, -164570, -183120
63862, -307, -1126, -535, -152320, -196770, -196070
63882, -303, -1102, -535, -158760, -220920, -210490
63902, -314, -1103, -566, -216580, -244300, -203490
63922, -320, -1128, -601, -270900, -286230, -175490
63942, -320, -1161, -622, -277620, -328930, -155890
63962, -328, -1214, -644, -255640, -347270, -159250
63982, -316, -1221, -627, -237790, -346710, -175070
64002, -342, -1283, -673, -226870, -355390, -179620
64022, -361, -1344, -737, -251230, -387170, -145390
64042, -354, -1337, -736, -244930, -446670, -92820
64062, -343, -1308, -733, -209650, -487060, -66570
64082, -320, -1201, -672, -185780, -493710, -58380
64102, -307, -1133, -637, -162890, -473200, -66290
64122, -301, -1105, -631, -149380, -452340, -67620
64142, -285, -1064, -607, -122780, -453320, -51450
64162, -266, -1006, -564, -84000, -438480, -50540
64182, -254, -966, -545, -51590, -414050, -49980
64202, -230, -902, -511, -24150, -361130, -33320
64222, -208, -840, -475, -10990, -307440, -32690
64242, -196, -800, -448, -13160, -250740, -26670
64262, -195, -782, -438, -13580, -196070, -16310
64282, -186, -751, -416, -490, -145530, -6860
64302, -176, -717, -398, 20930, -101920, 4550
64322, -167, -697, -387, 37870, -57260, 19110
64342, -167, -679, -379, 41370, -3850, 35210
64362, -166, -656, -365, 39200, 53410, 53340
64382, -173, -644, -367, 31640, 110250, 72450
64402, -179, -626, -363, 18760, 169680, 88060
64422, -188, -619, -363, 15190, 224980, 99540
