T [ms],AccX [mg],AccY [mg],AccZ [mg],GyroX [mdps],GyroY [mdps],GyroZ [mdps]
1787, 233, 388, 589, 51660, -9520, 10010
1807, 378, 489, 961, 49140, 6720, 12740
1827, 446, 474, 932, 52990, 62090, 39620
1847, 443, 434, 1051, 45500, 34650, 42630
1867, 434, 493, 971, 31500, 10500, 65660
1887, 374, 483, 820, 840, -73570, 29960
1907, 561, 646, 613, -23030, -109270, 5600
1927, 173, 298, 808, -13090, -45500, 11620
1947, 345, 405, 856, 19250, 80920, 82180
1967, 359, 358, 894, 43820, 85820, 83300
1987, 271, 352, 904, 21770, 58380, 32340
2007, 410, -231, 881, 12950, 64820, 14280
2027, 218, 483, 929, 53410, 97510, -69020
2047, 280, 428, 979, 69930, 116900, -145040
2067, 161, 487, 836, 51870, 51590, -69860
2087, 100, 441, 789, 47600, 16030, -4270
2107, 123, 510, 958, 46200, 14420, 16030
2127, 192, 629, 922, 56630, 2800, 24570
2147, 172, 533, 837, 84140, 8470, 26600
2167, 109, 538, 828, 95340, 24150, 22680
2187, 103, 589, 860, 86240, 28630, 20790
2207, 147, 637, 888, 81340, 28140, 14980
2227, 294, 685, 839, 86170, 22610, 6300
2247, 273, 602, 843, 95830, 34300, -18340
2267, 161, 540, 775, 112350, 49630, -47600
2287, 90, 645, 747, 106330, 48370, -48930
2307, 94, 722, 815, 85610, 25270, -27930
2327, 168, 743, 848, 68040, 3850, -9310
2347, 197, 689, 785, 67760, -7140, -12670
2367, 99, 668, 721, 74340, -1540, -37380
2387, -37, 763, 707, 68880, -2240, -49630
2407, -47, 856, 731, 52290, -8050, -46130
2427, 41, 782, 673, 41300, -17150, -33600
2447, 62, 676, 576, 44870, -17640, -34440
2467, 50, 695, 532, 42070, -18200, -33670
2487, 10, 739, 539, 27160, -20650, -26110
2507, 36, 735, 545, 16660, -18480, -22680
2527, 88, 707, 537, 11340, -17500, -23100
2547, 104, 732, 543, 7210, -18270, -25410
2567, 48, 770, 518, 490, -20650, -26810
2587, -36, 775, 435, -490, -17430, -38010
2607, -27, 809, 480, 1540, -11690, -45080
2627, -43, 800, 512, -700, -70, -50120
2647, -42, 828, 520, 1400, 6440, -58940
2667, -110, 812, 477, 4270, 2730, -55090
2687, -115, 856, 530, 3710, 1260, -49000
2707, -123, 852, 557, -1540, 4130, -49840
2727, -129, 912, 603, -3780, 3850, -47740
2747, -127, 883, 603, -5740, -630, -43050
2767, -168, 868, 568, -6930, -4130, -34580
2787, -194, 851, 525, -6790, -11200, -28140
2807, -225, 829, 525, -5390, -9030, -27650
2827, -170, 837, 542, -7070, 2660, -33180
2847, -157, 779, 536, -10780, 6160, -27300
2867, -135, 812, 582, -13090, 8680, -23170
2887, -217, 753, 566, -12950, 7840, -22960
2907, -201, 767, 548, -12880, 4620, -20650
2927, -142, 818, 594, -11690, 490, -23520
2947, -157, 735, 574, -15120, 6650, -26950
2967, -84, 802, 666, -17710, 7770, -27860
2987, -89, 787, 717, -18550, 1610, -24150
3007, -179, 821, 686, -12110, 2590, -28910
3027, -264, 835, 607, -3780, 1190, -39900
3047, -331, 754, 518, 280, 0, -41580
3067, -319, 719, 520, -4340, -700, -34510
3087, -325, 760, 628, -11550, 7420, -33950
3107, -338, 820, 672, -15820, 13720, -36750
3127, -366, 811, 606, -14980, 9800, -31710
3147, -385, 802, 560, -12040, -490, -24500
3167, -334, 767, 576, -14420, -2730, -18410
3187, -217, 769, 649, -15960, 8750, -24640
3207, -214, 742, 660, -19180, 12600, -22680
3227, -314, 736, 603, -16590, 7000, -20090
3247, -392, 685, 544, -14490, -560, -15610
3267, -334, 657, 546, -14350, 2660, -13720
3287, -293, 652, 589, -14210, 15890, -18270
3307, -405, 665, 590, -14070, 28210, -28630
3327, -529, 668, 541, -14910, 32340, -37800
3347, -560, 655, 494, -17920, 29890, -33460
3367, -507, 663, 495, -21000, 33530, -31010
3387, -454, 642, 545, -25270, 46760, -40320
3407, -427, 612, 555, -29260, 57400, -45780
3427, -465, 594, 542, -30170, 53760, -37100
3447, -476, 558, 508, -35490, 44940, -27230
3467, -438, 584, 575, -36260, 43050, -24990
3487, -382, 587, 637, -43400, 47600, -28210
3507, -379, 559, 679, -45920, 56420, -39200
3527, -446, 505, 630, -41370, 58660, -47110
3547, -515, 467, 556, -37240, 51520, -49910
3567, -585, 516, 596, -36470, 47390, -57820
3587, -523, 469, 653, -38360, 53970, -68880
3607, -554, 413, 659, -34720, 59570, -74690
3627, -668, 442, 577, -31150, 51450, -80010
3647, -706, 403, 541, -31220, 36750, -80500
3667, -726, 351, 527, -30030, 34230, -78050
3687, -677, 369, 585, -25830, 59640, -96670
3707, -652, 336, 640, -24430, 80150, -121450
3727, -821, 259, 629, -26600, 76720, -128310
3747, -1021, 302, 531, -28420, 49980, -100310
3767, -971, 275, 503, -24080, 62790, -105280
3787, -871, 238, 531, -31500, 63700, -104300
3807, -864, 302, 688, -43610, 49560, -86730
3827, -948, 239, 669, -31640, 32550, -71190
3847, -993, 228, 569, -8750, 30240, -79590
3867, -891, 178, 586, -8610, 21350, -73220
3887, -897, 194, 596, -23660, 6230, -60200
3907, -992, 114, 581, -18130, 5180, -53340
3927, -1136, 99, 491, 4410, 24640, -68320
3947, -1114, 8, 510, 14910, 43050, -73850
3967, -1101, 49, 474, -8960, 30590, -59150
3987, -1085, 58, 491, -19740, 21980, -37940
4007, -1049, 85, 499, -7700, 38430, -42000
4027, -1048, -95, 501, 8680, 52360, -40110
4047, -939, -118, 504, 11130, 52850, -40460
4067, -990, 2, 489, -5320, 19180, -21140
4087, -1029, -16, 416, -3850, -980, -5880
4107, -1027, -79, 352, 6790, 2310, -6510
4127, -968, -114, 347, 12670, 15330, -9590
4147, -909, -86, 384, 5460, 19880, -10920
4167, -889, -37, 425, -3430, 13300, -6580
4187, -941, -49, 371, 3570, 9240, -10780
4207, -975, -54, 318, 10570, 5530, -14700
4227, -974, -72, 314, 7980, 4270, -11760
4247, -949, -64, 331, -1190, 5810, -8190
4267, -930, -45, 355, -5880, 7280, -6090
4287, -947, -83, 334, 350, 13930, -11830
4307, -925, -91, 326, 6090, 15610, -17220
4327, -930, -74, 327, -770, 5740, -12040
4347, -913, -63, 310, -7560, -1610, -6020
4367, -931, -4, 308, -8820, 840, -7980
4387, -930, -20, 229, -4620, 13510, -14980
4407, -984, -44, 207, -3080, 31710, -11550
4427, -872, -219, 245, -15190, 39550, 15680
4447, -916, -196, 238, -26670, 45290, 15890
4467, -1077, -212, 123, -50820, 35070, -32760
4487, -795, -242, 427, -38500, -120890, -112420
4507, -768, -221, 422, -16800, -223020, -93940
4527, -699, -307, 220, -27580, -120470, -7700
4547, -758, -230, 517, -23450, -72240, 30520
4567, -743, -223, 531, 5600, -136710, -16170
4587, -657, -215, 586, 29470, -270620, -69090
4607, -276, -158, 118, 58870, -360010, -92120
4627, 66, -46, -331, 141610, -314860, -105350
4647, -960, 296, 441, 280910, 31290, -109760
4667, -247, -185, -466, 319900, 450590, -150150
4687, -682, -328, -638, 338940, 604520, -67270
4707, -1185, -384, -914, 403970, 1010310, -275520
4727, -1252, -105, -853, 713790, 1238580, -516530
4747, -499, -469, -3, 1125250, 1230250, -669060
4767, -1998, -1998, -1812, 1140370, 947660, -398860
4787, -1998, -1998, -1997, -224700, 613340, 532560
4807, -633, -1188, -869, -902930, 437080, 504140
4827, -560, -535, -316, 73150, 132230, -31010
4847, -125, -102, -217, 665770, -119350, -160300
4867, -77, -70, -50, 784070, -329350, -263830
4887, -64, -116, -85, 552440, -290290, -202090
4907, -19, -76, -81, 308770, -210840, -95060
4927, -76, -101, -56, 118720, -95690, -39690
4947, -99, -168, -147, -118860, 98350, -2520
4967, -247, -334, -184, -326830, 221690, 28700
4987, -342, -524, -289, -458220, 302820, 37520
5007, -574, -961, -550, -422870, 236110, 11900
5027, -892, -1661, -1006, -203560, 81620, -62860
5047, -1768, -1998, -1735, 156450, -91490, -199640
5067, -1273, -1998, -865, 434280, -211890, -341950
5087, -560, -798, -457, 296520, -348180, -356720
5107, -502, -448, -407, -279790, -474250, -199150
5127, -450, -395, -456, -596680, -556570, -72870
5147, -355, -326, -378, -586390, -665420, 31290
5167, -242, -216, -295, -427140, -663250, -47530
5187, -166, -166, -220, -310520, -520030, -239680
5207, -177, -160, -124, -298550, -287630, -432600
5227, -190, -175, -74, -338450, -37870, -565530
5247, -232, -193, -30, -354340, 76720, -595140
5267, -324, -285, -87, -353570, 47250, -537320
5287, -558, -639, -408, -336630, -137410, -422590
5307, -795, -1092, -818, -247520, -473410, -261450
5327, -838, -1293, -841, -36330, -846510, -136500
5347, -1042, -1730, -810, 141680, -952910, -221550
5367, -775, -1266, -859, -95760, -651420, -425180
5387, -911, -1111, -844, -536270, -499450, -409710
5407, -730, -819, -765, -665490, -684880, -170870
5427, -453, -448, -468, -526120, -855120, -84560
5447, -313, -245, -299, -344050, -825230, -247800
5467, -224, -174, -213, -351820, -589400, -424970
5487, -230, -169, -163, -440300, -315980, -511840
5507, -256, -173, -142, -425110, -335440, -439600
5527, -342, -286, -240, -385280, -439670, -331380
5547, -450, -506, -415, -278810, -618450, -218960
5567, -467, -631, -486, -138110, -716030, -206220
5587, -475, -815, -483, -107940, -645680, -278460
5607, -671, -1321, -726, -297640, -460810, -300230
5627, -1083, -1980, -1186, -559230, -339220, -217840
5647, -1037, -1921, -1260, -539350, -438550, -123900
5667, -734, -1224, -730, -188160, -609910, -149730
5687, -498, -796, -546, 5950, -665840, -208950
5707, -345, -542, -342, 6300, -652610, -230300
5727, -263, -398, -272, -88340, -544040, -228690
5747, -268, -419, -289, -192290, -486920, -168280
5767, -311, -508, -347, -224770, -480830, -61880
5787, -364, -636, -402, -156170, -512120, 19180
5807, -439, -849, -544, -90720, -483560, 30520
5827, -559, -1116, -682, -55020, -355040, -53970
5847, -681, -1363, -720, -11130, -150010, -209860
5867, -719, -1532, -724, 21840, -29750, -297710
5887, -680, -1428, -693, -1750, -105910, -207410
5907, -548, -1127, -622, -40320, -264600, -45850
5927, -413, -882, -514, 8190, -360220, 37380
5947, -305, -650, -394, 98140, -315210, 2800
5967, -247, -534, -301, 143710, -183750, -75040
5987, -222, -493, -271, 115780, -35140, -117530
6007, -232, -504, -267, 64470, 87990, -114590
6027, -249, -541, -284, 32760, 169400, -73990
6047, -282, -604, -311, 30520, 203700, -8540
6067, -333, -694, -348, 50050, 196140, 79030
6087, -410, -850, -453, 74620, 157360, 179760
6107, -498, -1036, -609, 98630, 119350, 265860
6127, -578, -1146, -716, 140700, 149800, 284760
6147, -587, -1050, -665, 193970, 277200, 214970
6167, -512, -851, -506, 248220, 434910, 108850
6187, -416, -677, -390, 265230, 521010, 72030
6207, -374, -579, -347, 227150, 519540, 134610
6227, -374, -540, -356, 163870, 492450, 236180
6247, -393, -537, -378, 112980, 490560, 302750
6267, -412, -549, -403, 106050, 513100, 312690
6287, -430, -568, -429, 159600, 533400, 282520
6307, -449, -602, -468, 262220, 536480, 241290
6327, -482, -660, -508, 375480, 532560, 208040
6347, -550, -793, -561, 451290, 540190, 195020
6367, -684, -1043, -674, 454580, 565530, 206990
6387, -769, -1209, -756, 389970, 607740, 220640
6407, -714, -1149, -694, 325080, 636860, 213010
6427, -594, -957, -546, 322210, 598850, 214620
6447, -510, -809, -442, 333270, 501410, 265720
6467, -487, -763, -424, 292390, 403550, 346850
6487, -485, -763, -451, 228690, 337330, 410410
6507, -485, -781, -484, 206150, 301490, 423920
6527, -486, -794, -502, 239750, 293720, 389060
6547, -502, -818, -503, 296520, 319060, 321440
6567, -533, -881, -491, 325290, 372750, 253330
6587, -596, -1016, -498, 285320, 430220, 218050
6607, -661, -1147, -567, 163590, 460950, 231420
6627, -680, -1196, -622, 15680, 431830, 279160
6647, -620, -1103, -580, -58380, 349440, 311150
6667, -525, -937, -477, -24430, 263760, 286720
6687, -448, -799, -392, 48160, 210980, 224350
6707, -412, -732, -353, 83090, 190330, 166600
6727, -409, -726, -348, 68810, 191240, 126420
6747, -424, -756, -354, 33460, 202090, 92820
6767, -452, -808, -364, -2940, 211330, 58520
6787, -487, -880, -381, -39550, 208250, 25200
6807, -527, -965, -424, -75670, 174860, 6300
6827, -554, -1020, -480, -93800, 89600, 13160
6847, -532, -985, -488, -79380, -31220, 30240
6867, -471, -864, -421, -39200, -126000, 15750
6887, -399, -708, -319, -18130, -147350, -42280
6907, -352, -602, -265, -49700, -121100, -106400
6927, -349, -552, -244, -117320, -106680, -136220
6947, -361, -546, -265, -183890, -126630, -134540
6967, -379, -549, -286, -206640, -193200, -118930
6987, -384, -559, -320, -168420, -288190, -110250
7007, -390, -575, -339, -120190, -359660, -131600
7027, -402, -616, -359, -98420, -369320, -189350
7047, -433, -678, -369, -103320, -332150, -263340
7067, -484, -768, -394, -128450, -282450, -324730
7087, -566, -908, -480, -169120, -263620, -349090
7107, -633, -1019, -573, -217840, -299040, -330540
7127, -671, -1082, -640, -240310, -382550, -294210
7147, -644, -1059, -641, -240660, -457310, -277900
7167, -576, -938, -538, -249970, -463540, -312130
7187, -518, -826, -461, -273210, -405160, -373590
7207, -516, -799, -482, -323890, -370300, -383880
7227, -534, -826, -530, -382340, -404250, -237720
7247, -545, -913, -602, -388500, -499800, -196140
7267, -553, -996, -620, -358820, -457800, -213780
7287, -578, -1075, -622, -341040, -377020, -249340
7307, -614, -1146, -642, -328300, -346290, -237720
7327, -625, -1146, -649, -309120, -393120, -169610
7347, -610, -1123, -667, -291270, -459830, -86590
7367, -578, -1072, -644, -257040, -488880, -38290
7387, -523, -1005, -608, -214690, -455070, -44870
7407, -438, -859, -484, -168140, -379820, -89740
7427, -374, -739, -395, -143150, -316330, -106190
7447, -357, -697, -375, -155260, -295610, -66710
7467, -365, -726, -410, -157990, -298550, -2940
7487, -371, -766, -437, -121240, -293860, 36610
7507, -368, -787, -445, -60620, -254100, 33600
7527, -359, -778, -416, -7630, -174790, 490
7547, -352, -771, -389, 16450, -91350, -22890
7567, -359, -790, -396, 13300, -43260, -1540
7587, -374, -816, -429, -700, -18830, 46270
7607, -375, -809, -436, -4480, 17290, 78890
7627, -357, -754, -405, 18690, 68950, 82600
7647, -335, -687, -368, 60480, 112700, 83090
7667, -313, -631, -334, 103670, 137900, 97930
7687, -309, -606, -338, 131250, 157430, 125510
7707, -329, -616, -362, 133770, 198030, 145530
7727, -355, -626, -384, 128730, 272090, 137690
7747, -374, -626, -384, 141470, 355670, 107310
7767, -392, -639, -383, 170450, 417060, 81550
7787, -418, -693, -406, 192780, 447790, 80010
7807, -471, -807, -463, 199150, 454930, 102480
7827, -552, -972, -564, 195580, 447230, 136010
7847, -606, -1085, -630, 205660, 428260, 159530
7867, -611, -1109, -639, 253610, 391650, 168000
7887, -595, -1071, -629, 302330, 351680, 171990
7907, -554, -970, -569, 319480, 344400, 160650
7927, -504, -872, -497, 327950, 353010, 142590
7947, -462, -815, -444, 338660, 334950, 146090
7967, -467, -844, -447, 331940, 289100, 184170
7987, -533, -979, -530, 288330, 248850, 236600
8007, -610, -1143, -619, 228830, 240100, 264110
8027, -650, -1242, -654, 207410, 237720, 256340
8047, -637, -1242, -640, 223440, 204330, 245980
8067, -606, -1175, -595, 224630, 158060, 250880
8087, -577, -1109, -559, 182840, 142590, 252560
8107, -549, -1050, -513, 129990, 141750, 246120
8127, -528, -1004, -485, 96530, 121240, 245980
8147, -522, -986, -489, 67060, 84490, 256480
8167, -515, -969, -486, 39970, 59850, 254100
8187, -504, -960, -474, 33390, 54880, 222460
8207, -502, -964, -458, 42420, 55230, 177380
8227, -515, -985, -458, 44940, 46480, 144550
8247, -537, -1023, -482, 18760, 30590, 131320
8267, -549, -1044, -498, -29750, 12670, 124320
8287, -541, -1025, -489, -60690, -13580, 109410
8307, -517, -965, -454, -58100, -53410, 85820
8327, -478, -885, -414, -43050, -101360, 62090
8347, -438, -800, -383, -38220, -147000, 43120
8367, -405, -734, -361, -44660, -176120, 21700
8387, -370, -655, -321, -55090, -182280, -10360
8407, -330, -556, -247, -65800, -172130, -49420
8427, -302, -489, -222, -82740, -167440, -76440
8447, -296, -460, -225, -111790, -192780, -71820
8467, -286, -455, -242, -141400, -218820, -63770
8487, -278, -442, -232, -163660, -213710, -84770
8507, -280, -435, -213, -165130, -182280, -130970
8527, -296, -472, -227, -164080, -149520, -174720
8547, -329, -547, -275, -173390, -133070, -199290
8567, -358, -629, -305, -179690, -130830, -213990
8587, -407, -760, -368, -183680, -124390, -229110
8607, -495, -937, -441, -209300, -101080, -240520
8627, -613, -1172, -570, -241150, -88690, -234710
8647, -706, -1359, -687, -263690, -129010, -197260
8667, -724, -1414, -770, -280000, -207340, -145880
8687, -650, -1262, -694, -287490, -285880, -96040
8707, -530, -1049, -569, -293580, -290780, -92750
8727, -465, -897, -464, -309750, -232050, -129150
8747, -453, -861, -451, -310310, -203350, -129360
8767, -499, -952, -528, -299670, -235060, -76720
8787, -556, -1114, -615, -284970, -280980, -10430
8807, -632, -1307, -718, -262080, -294140, 24990
8827, -693, -1443, -768, -247940, -252840, 20090
8847, -692, -1445, -748, -233590, -190260, -6650
8867, -649, -1339, -692, -208600, -164010, -14770
8887, -590, -1214, -645, -192640, -186760, 13720
8907, -525, -1088, -579, -169890, -228410, 57960
8927, -454, -953, -501, -125440, -248290, 80360
8947, -396, -837, -430, -84070, -226940, 73990
8967, -364, -763, -391, -68460, -179200, 64610
8987, -353, -735, -382, -87850, -82950, 81620
9007, -344, -716, -376, -71400, -49630, 91910
9027, -327, -682, -355, -29750, -22050, 94710
9047, -308, -641, -331, 12600, 7910, 95970
9067, -300, -618, -319, 37660, 41720, 104720
9087, -309, -634, -335, 45220, 79800, 120820
9107, -339, -677, -365, 42350, 126700, 134120
9127, -377, -740, -411, 39690, 182560, 133420
9147, -410, -782, -442, 58450, 237930, 113400
9167, -410, -768, -429, 110810, 276290, 86030
9187, -390, -725, -396, 170030, 287630, 77280
9207, -378, -691, -379, 196070, 282310, 99750
9227, -380, -685, -387, 187530, 280210, 134610
9247, -383, -670, -387, 180390, 289800, 154840
9267, -379, -647, -384, 200130, 300440, 155050
9287, -374, -626, -377, 244020, 302120, 146020
9307, -381, -645, -389, 287490, 300440, 139160
9327, -406, -696, -411, 310100, 305690, 137410
9347, -449, -796, -451, 316260, 308560, 146090
9367, -517, -960, -521, 311360, 293790, 174440
9387, -617, -1179, -622, 285950, 267890, 215180
9407, -712, -1384, -736, 235060, 245140, 249270
9427, -717, -1401, -744, 192080, 227010, 258370
9447, -632, -1240, -640, 196770, 190890, 252140
9467, -554, -1093, -556, 220570, 130970, 259420
9487, -523, -1027, -518, 214270, 85330, 274610
9507, -531, -1042, -529, 170450, 81270, 282170
9527, -571, -1114, -565, 117530, 98280, 276780
9547, -622, -1216, -610, 81830, 109130, 263270
9567, -675, -1334, -673, 64120, 100170, 248360
9587, -700, -1393, -693, 56630, 79380, 230860
9607, -674, -1339, -645, 56490, 49420, 212800
9627, -625, -1234, -592, 43890, 5110, 210700
9647, -573, -1117, -548, 6230, -35770, 220220
9667, -550, -1060, -529, -38780, -48580, 213080
9687, -543, -1033, -505, -61600, -43680, 180530
9707, -517, -979, -456, -50750, -48510, 136290
9727, -503, -946, -436, -30310, -83160, 102970
9747, -498, -938, -463, -36890, -137690, 97650
9767, -482, -896, -437, -48790, -170660, 85050
9787, -452, -846, -412, -57330, -162050, 39620
9807, -431, -786, -367, -62230, -157920, -4200
9827, -403, -712, -327, -61110, -177940, -25340
9847, -377, -648, -303, -72940, -212660, -28420
9867, -367, -619, -318, -98280, -254310, -16240
9887, -344, -573, -306, -113120, -282100, -15260
9907, -310, -514, -269, -112630, -268450, -53900
9927, -288, -457, -229, -115430, -225400, -112630
9947, -266, -398, -184, -119770, -192360, -156380
9967, -246, -368, -175, -124740, -188440, -171010
9987, -241, -361, -175, -136500, -211820, -155960
10007, -243, -392, -211, -160090, -231350, -129010
10027, -264, -456, -244, -206430, -207690, -122920
10047, -304, -555, -282, -259280, -136710, -148750
10067, -367, -695, -343, -282100, -72100, -177520
10087, -479, -926, -454, -266700, -53270, -182910
10107, -622, -1249, -621, -250950, -63140, -172200
10127, -786, -1581, -755, -249410, -79590, -159880
10147, -897, -1812, -973, -262920, -115570, -131530
10167, -759, -1530, -816, -303520, -197540, -72030
10187, -567, -1156, -598, -259630, -261170, -50680
10207, -475, -950, -479, -237930, -249830, -61460
10227, -463, -912, -488, -287770, -219800, -38290
10247, -540, -1063, -598, -337400, -214900, 20370
10267, -580, -1221, -680, -324100, -230020, 69790
10287, -645, -1373, -714, -251650, -205520, 51030
10307, -712, -1512, -755, -188370, -150080, 13930
10327, -754, -1570, -813, -179760, -130760, 23450
10347, -701, -1475, -798, -199570, -166670, 82320
10367, -596, -1255, -661, -182560, -209650, 125930
10387, -507, -1072, -552, -139230, -192920, 118580
10407, -449, -942, -481, -110950, -158060, 105980
10427, -417, -881, -454, -90930, -136080, 111230
10447, -405, -859, -453, -77560, -115850, 125020
10467, -404, -859, -449, -63210, -80430, 129850
10487, -407, -858, -439, -43890, -32970, 125580
10507, -416, -859, -439, -28350, 15190, 122290
10527, -403, -834, -432, -17360, 43680, 131880
10547, -387, -791, -418, 3570, 55930, 145670
10567, -365, -730, -391, 28980, 75740, 151270
10587, -333, -648, -352, 51940, 112420, 144900
10607, -305, -572, -310, 72170, 157360, 134610
10627, -284, -508, -281, 86730, 198660, 131110
10647, -269, -461, -269, 98770, 226870, 139860
10667, -263, -429, -267, 117040, 242830, 155820
10687, -266, -415, -272, 143920, 257600, 168560
10707, -276, -413, -281, 174160, 281820, 171150
10727, -288, -420, -293, 244440, 345730, 150430
10747, -305, -441, -304, 287910, 364350, 145250
10767, -327, -490, -329, 322280, 371000, 155750
10787, -367, -579, -367, 330890, 376740, 180040
10807, -431, -714, -430, 312410, 384440, 211190
10827, -513, -893, -514, 281750, 383250, 245490
10847, -616, -1113, -620, 247870, 372470, 277060
10867, -691, -1282, -687, 212030, 357140, 296310
10887, -704, -1326, -686, 182140, 315070, 318570
10907, -656, -1239, -641, 156660, 241990, 355950
10927, -599, -1133, -606, 140840, 176260, 384790
10947, -564, -1065, -586, 136990, 165200, 373170
10967, -567, -1073, -577, 129010, 212660, 323190
10987, -635, -1202, -606, 92540, 276920, 277970
11007, -742, -1419, -708, 23730, 304920, 266070
11027, -832, -1618, -823, -41580, 270480, 283570
11047, -815, -1608, -824, -56000, 196210, 291690
11067, -718, -1418, -709, -34230, 143220, 267820
11087, -633, -1243, -610, -42770, 133560, 230090
11107, -589, -1141, -559, -86730, 142380, 197890
11127, -570, -1094, -529, -120330, 142380, 170100
11147, -566, -1083, -507, -130060, 123690, 143010
11167, -583, -1114, -518, -134190, 79800, 128240
11187, -609, -1167, -563, -147070, 18340, 126910
11207, -613, -1167, -572, -151200, -44240, 121590
11227, -536, -1030, -499, -137620, -89600, 96040
11247, -503, -919, -421, -141120, -103600, 51870
11267, -488, -898, -453, -204680, -90860, 17360
11287, -486, -841, -399, -208250, -131950, 980
11307, -452, -778, -381, -159810, -198870, -15400
11327, -441, -730, -360, -133350, -271180, -29820
11347, -399, -657, -346, -136360, -312060, -46760
11367, -374, -583, -296, -149520, -328090, -72590
11387, -370, -557, -300, -176610, -329070, -92960
11407, -363, -529, -300, -194180, -341740, -108990
11427, -334, -464, -260, -176680, -361690, -136290
11447, -311, -422, -247, -168140, -364980, -172970
11467, -310, -417, -246, -190750, -355600, -197120
11487, -306, -405, -243, -213150, -342510, -214970
11507, -307, -410, -244, -225330, -326270, -240030
11527, -309, -436, -255, -232750, -307720, -268870
11547, -318, -480, -264, -239890, -286860, -291900
11567, -346, -568, -289, -260050, -256550, -304500
11587, -415, -719, -369, -296520, -238700, -287420
11607, -566, -1026, -589, -345450, -255850, -229530
11627, -765, -1457, -819, -397880, -270060, -181370
11647, -895, -1751, -973, -402010, -277270, -170030
11667, -828, -1597, -864, -337400, -319200, -166040
11687, -640, -1217, -673, -286860, -382270, -140700
11707, -528, -971, -558, -300300, -429030, -87640
11727, -491, -896, -539, -348950, -420840, -36960
11747, -523, -976, -579, -358400, -410060, 9240
11767, -586, -1151, -655, -299880, -411110, 36190
11787, -686, -1408, -780, -228060, -393120, 31080
11807, -813, -1672, -887, -185290, -351400, 11690
11827, -879, -1803, -977, -182630, -307160, 1400
11847, -770, -1574, -848, -178430, -318360, 17570
11867, -635, -1291, -693, -98910, -382410, 42210
11887, -522, -1082, -592, -36960, -419020, 56840
11907, -460, -958, -520, -25410, -402500, 58800
11927, -426, -907, -498, -29470, -339920, 46550
11947, -423, -907, -488, -30940, -272160, 32690
11967, -429, -931, -485, -11130, -215110, 23450
11987, -458, -999, -527, 15680, -179760, 29680
12007, -479, -1045, -562, 28000, -156730, 53970
12027, -461, -1006, -538, 47460, -126350, 68390
12047, -407, -903, -468, 82530, -82180, 63840
12067, -353, -768, -398, 109200, -34440, 59640
12087, -310, -662, -344, 119560, 7700, 71750
12107, -282, -585, -322, 114870, 47530, 99050
12127, -265, -523, -304, 103530, 92050, 130690
12147, -249, -456, -278, 110460, 143080, 151270
12167, -235, -396, -257, 141050, 194810, 160370
12187, -232, -354, -246, 177170, 244370, 167300
12207, -241, -333, -251, 203980, 295050, 176540
12227, -262, -332, -269, 222390, 349440, 184870
12247, -291, -346, -301, 241360, 405930, 187320
12267, -329, -364, -335, 269780, 461860, 180530
12287, -361, -390, -366, 313040, 514430, 164430
12307, -398, -455, -407, 366870, 556360, 148190
12327, -462, -591, -476, 415520, 582820, 146930
12347, -554, -798, -557, 441350, 600180, 166180
12367, -700, -1115, -670, 437710, 610680, 204750
12387, -870, -1490, -858, 393820, 598010, 268030
12407, -867, -1579, -917, 312760, 551600, 339080
12427, -729, -1315, -755, 275730, 465360, 381570
12447, -581, -1026, -579, 313950, 367850, 399980
12467, -518, -886, -503, 339010, 307160, 411880
12487, -531, -897, -530, 234360, 313110, 439250
12507, -606, -1034, -606, 171640, 364700, 424200
12527, -732, -1289, -720, 133490, 414960, 388360
12547, -887, -1631, -856, 101500, 437360, 354340
12567, -961, -1819, -929, 53970, 407890, 345660
12587, -866, -1646, -854, 3500, 331520, 356300
12607, -727, -1363, -707, -13230, 270760, 345730
12627, -644, -1195, -623, -35420, 279230, 291340
12647, -623, -1137, -575, -70630, 321230, 217490
12667, -624, -1140, -545, -86310, 331940, 156030
12687, -641, -1197, -557, -85120, 280490, 128590
12707, -675, -1291, -613, -89600, 192920, 127960
12727, -695, -1331, -646, -121310, 130970, 116690
12747, -664, -1274, -620, -163310, 109900, 71890
12767, -587, -1110, -519, -166040, 80360, 15260
12787, -503, -933, -419, -141890, 18060, -21840
12807, -442, -790, -354, -147490, -53130, -29890
12827, -397, -676, -312, -182280, -109060, -30870
12847, -372, -599, -289, -214550, -156310, -35630
12867, -352, -537, -272, -224840, -206360, -44590
12887, -338, -489, -257, -211400, -259700, -58800
12907, -310, -423, -228, -192430, -300440, -85260
12927, -290, -374, -211, -194250, -319410, -118930
12947, -295, -364, -216, -213780, -332220, -142240
12967, -305, -368, -229, -229250, -347480, -159390
12987, -313, -372, -242, -232820, -359520, -188720
13007, -310, -353, -233, -219940, -366870, -231770
13027, -308, -350, -229, -201530, -373380, -273210
13047, -344, -411, -270, -205100, -374430, -303660
13067, -372, -470, -303, -214340, -364420, -339430
13087, -380, -507, -293, -209020, -335230, -398020
13107, -405, -598, -315, -232190, -296450, -440860
13127, -491, -777, -402, -298340, -283500, -424340
13147, -682, -1132, -651, -380030, -316260, -357350
13167, -833, -1472, -883, -427770, -394450, -281470
13187, -841, -1524, -863, -391300, -455140, -262080
13207, -733, -1320, -766, -377160, -441840, -284760
13227, -646, -1090, -651, -413560, -455000, -249130
13247, -592, -998, -647, -442680, -500360, -166670
13267, -613, -1054, -673, -445760, -538230, -89600
13287, -666, -1214, -750, -405370, -538370, -50820
13307, -751, -1435, -853, -337680, -521290, -50470
13327, -820, -1596, -882, -261660, -501410, -63630
13347, -895, -1721, -970, -233940, -480200, -66920
13367, -878, -1685, -991, -255640, -498750, -27370
13387, -770, -1500, -891, -195510, -549290, -3150
13407, -637, -1255, -718, -77140, -568960, -29680
13427, -561, -1100, -620, -13160, -529970, -76580
13447, -521, -1030, -600, -36680, -476910, -85890
13467, -514, -1022, -599, -64330, -440510, -71750
13487, -500, -1022, -596, -61110, -396200, -75530
13507, -493, -1018, -576, -11410, -356580, -91840
13527, -471, -997, -548, 55930, -335860, -95830
13547, -450, -976, -537, 81200, -296030, -96600
13567, -412, -904, -490, 58940, -227430, -94010
13587, -353, -783, -409, 46200, -155960, -90090
13607, -308, -684, -353, 46550, -98070, -73990
13627, -270, -615, -327, 48440, -63630, -36820
13647, -240, -546, -308, 68040, -49280, 15610
13667, -218, -484, -285, 96950, -15680, 56490
13687, -204, -428, -266, 121870, 51310, 77350
13707, -199, -372, -240, 145040, 134680, 88900
13727, -203, -337, -229, 166740, 218050, 102060
13747, -224, -336, -245, 175140, 296310, 123480
13767, -253, -344, -271, 168420, 374570, 146440
13787, -287, -348, -293, 167580, 454160, 160090
13807, -329, -365, -317, 189070, 526120, 164360
13827, -377, -420, -360, 221900, 586530, 164990
13847, -448, -526, -438, 249410, 637350, 165620
13867, -539, -684, -536, 268100, 684530, 163520
13887, -633, -888, -637, 294210, 722540, 157640
13907, -767, -1195, -760, 341740, 723870, 167370
13927, -893, -1510, -921, 382480, 676760, 208110
13947, -849, -1476, -926, 391370, 597310, 256060
13967, -702, -1170, -753, 415590, 517300, 272020
13987, -576, -910, -580, 457730, 473690, 261310
14007, -501, -798, -489, 471940, 451990, 257950
14027, -519, -877, -514, 441210, 419580, 287140
14047, -653, -1154, -668, 382480, 372400, 345940
14067, -860, -1595, -916, 324450, 331030, 401730
14087, -1001, -1911, -1033, 289030, 315420, 412720
14107, -904, -1745, -886, 274750, 328370, 369320
14127, -738, -1399, -694, 238980, 317380, 337540
14147, -642, -1184, -597, 167860, 252980, 363930
14167, -612, -1118, -583, 97440, 185710, 402360
14187, -610, -1120, -593, 37800, 163030, 408170
14207, -613, -1131, -581, -3010, 185500, 365890
14227, -603, -1139, -564, 18200, 197470, 237790
14247, -611, -1168, -550, 37240, 157640, 206220
14267, -625, -1201, -561, -1050, 122430, 196840
14287, -646, -1230, -596, -86660, 102620, 190400
14307, -611, -1150, -558, -134330, 69790, 170940
14327, -547, -1024, -489, -124950, 21980, 135450
14347, -486, -892, -419, -107170, -29610, 100170
14367, -428, -776, -365, -92960, -71400, 65240
14387, -383, -672, -308, -85400, -106050, 32900
14407, -339, -566, -252, -89670, -137480, 9590
14427, -315, -496, -223, -114240, -170170, 560
14447, -299, -453, -218, -144410, -203490, -4760
14467, -283, -414, -211, -161210, -229110, -19810
14487, -271, -383, -200, -170380, -239330, -48930
14507, -268, -363, -193, -177940, -245490, -77770
14527, -263, -349, -198, -175490, -255430, -107310
14547, -267, -345, -200, -162050, -266280, -143990
14567, -262, -343, -206, -145530, -263620, -192150
14587, -266, -349, -197, -137270, -239400, -249270
14607, -273, -366, -192, -146790, -197050, -304780
14627, -302, -437, -210, -176120, -152390, -346220
14647, -363, -576, -258, -223930, -119840, -365120
14667, -485, -841, -400, -284480, -113330, -355110
14687, -727, -1323, -692, -328090, -162330, -310870
14707, -945, -1762, -954, -317590, -263270, -258580
14727, -927, -1774, -935, -284410, -333480, -259560
14747, -760, -1409, -745, -318150, -332570, -285530
14767, -640, -1122, -654, -411880, -351260, -245420
14787, -563, -965, -601, -458920, -410060, -168700
14807, -539, -939, -581, -440020, -446740, -116550
14827, -564, -1042, -627, -409150, -440930, -91840
14847, -656, -1274, -733, -379330, -411600, -84840
14867, -802, -1602, -897, -351330, -380590, -77700
14887, -931, -1847, -1023, -327600, -373170, -58170
14907, -886, -1738, -978, -299180, -399700, -28980
14927, -749, -1444, -819, -231770, -469210, 7770
14947, -602, -1172, -665, -152810, -511490, 16800
14967, -512, -1005, -563, -119980, -489720, -70
14987, -483, -957, -541, -131460, -435260, -7560
15007, -497, -1003, -570, -142100, -392770, 3710
15027, -507, -1050, -593, -112420, -367430, 13930
15047, -504, -1070, -594, -51380, -335650, 1190
15067, -485, -1046, -569, -4130, -287140, -18620
15087, -452, -983, -521, 22890, -237230, -25970
15107, -404, -895, -460, 35630, -198240, -13020
15127, -357, -787, -415, 38710, -164150, 10570
15147, -311, -689, -367, 44100, -129500, 35700
15167, -274, -607, -328, 55160, -85680, 56700
15187, -247, -539, -303, 66920, -30380, 74970
15207, -229, -480, -279, 83300, 33740, 88900
15227, -219, -429, -258, 106750, 101710, 99470
15247, -217, -397, -249, 130340, 168910, 110810
15267, -225, -374, -249, 148050, 235760, 123900
15287, -240, -362, -256, 161070, 303170, 135870
15307, -261, -356, -265, 174720, 368690, 144480
15327, -291, -361, -287, 193340, 429100, 149450
15347, -326, -393, -320, 217420, 482370, 150570
15367, -371, -443, -366, 246540, 530320, 145670
15387, -422, -514, -429, 285250, 572810, 133420
15407, -479, -629, -494, 339290, 602840, 120960
15427, -574, -850, -583, 398370, 615020, 122850
15447, -737, -1226, -725, 428750, 609140, 153090
15467, -932, -1674, -945, 404460, 577780, 211400
15487, -918, -1703, -988, 349580, 505260, 277270
15507, -722, -1316, -766, 337260, 413420, 306320
15527, -550, -979, -553, 372680, 349930, 300090
15547, -459, -808, -438, 379610, 312060, 301980
15567, -471, -837, -465, 343910, 269990, 338030
15587, -550, -989, -570, 284480, 232190, 391860
15607, -686, -1259, -721, 230230, 232890, 413070
15627, -847, -1601, -868, 201180, 275240, 380170
15647, -904, -1764, -865, 188090, 330960, 311430
15667, -845, -1647, -796, 168070, 329560, 274610
15687, -735, -1405, -709, 101640, 229600, 326340
15707, -653, -1230, -639, 28490, 126630, 382130
15727, -600, -1132, -591, -19670, 105770, 368900
15747, -568, -1069, -534, -45920, 140840, 301420
15767, -557, -1051, -493, -39830, 166250, 227570
15787, -560, -1068, -491, -17080, 143220, 182840
15807, -583, -1113, -517, -7280, 84770, 169050
15827, -607, -1156, -561, -42420, 32690, 169820
15847, -596, -1128, -553, -111160, 6510, 161140
15867, -550, -1031, -503, -146160, -19670, 134960
15887, -486, -896, -428, -132930, -58520, 95060
15907, -427, -754, -345, -110950, -92540, 48580
15927, -379, -641, -289, -102410, -123480, 10290
15947, -350, -560, -264, -109550, -165620, -7770
15967, -321, -492, -243, -120400, -220080, -9450
15987, -290, -422, -222, -139650, -291480, -28700
16007, -265, -370, -204, -162190, -290920, -53410
16027, -251, -333, -190, -185360, -279300, -80290
16047, -244, -320, -187, -205520, -263830, -109620
16067, -249, -327, -191, -218680, -245210, -144200
16087, -260, -345, -197, -220220, -225120, -186690
16107, -269, -354, -194, -210980, -205940, -234710
16127, -292, -396, -212, -198800, -193550, -278180
16147, -310, -442, -227, -188930, -186550, -314580
16167, -331, -509, -236, -186830, -183960, -335440
16187, -397, -675, -319, -220080, -195160, -317940
16207, -563, -1037, -528, -285600, -212450, -274190
16227, -774, -1460, -742, -338240, -216930, -249830
16247, -975, -1886, -1054, -381010, -277620, -197680
16267, -888, -1668, -905, -360010, -359100, -164990
16287, -673, -1286, -755, -365890, -377160, -164780
16307, -561, -1006, -557, -384510, -369180, -160580
16327, -502, -919, -542, -393260, -356930, -139860
16347, -527, -959, -550, -363300, -407820, -73220
16367, -569, -1066, -615, -309890, -442050, -19110
16387, -654, -1282, -741, -300930, -436940, 12250
16407, -779, -1558, -869, -299250, -389200, 13020
16427, -882, -1787, -998, -288610, -333620, -8470
16447, -806, -1624, -869, -229110, -336910, -19950
16467, -688, -1372, -755, -142520, -386820, -6720
16487, -583, -1167, -648, -93940, -443800, 26460
16507, -506, -1027, -560, -60060, -445340, 37170
16527, -463, -958, -525, -54250, -402920, 32690
16547, -443, -933, -511, -70490, -337960, 28000
16567, -452, -953, -519, -69090, -279580, 25130
16587, -460, -991, -549, -50540, -232890, 25900
16607, -453, -982, -533, -7350, -187180, 15330
16627, -413, -910, -475, 49140, -139930, -70
16647, -372, -827, -424, 85330, -107800, 8050
16667, -333, -742, -383, 93380, -88830, 44380
16687, -297, -653, -344, 90440, -57890, 80500
16707, -271, -579, -316, 81410, -6160, 106750
16727, -257, -524, -299, 71610, 61040, 122150
16747, -243, -471, -279, 76930, 132510, 128030
16767, -234, -421, -262, 100800, 197540, 129640
16787, -236, -389, -254, 134610, 252630, 134190
16807, -242, -360, -254, 170590, 301910, 142170
16827, -252, -350, -258, 204120, 349510, 151690
16847, -282, -371, -286, 228060, 398860, 160860
16867, -333, -427, -339, 242270, 452410, 166040
16887, -387, -496, -396, 259420, 509530, 158760
16907, -444, -579, -453, 293650, 560840, 141190
16927, -505, -703, -515, 343000, 592130, 128450
16947, -584, -897, -585, 387380, 598220, 135940
16967, -688, -1166, -693, 404810, 576240, 172060
16987, -779, -1378, -786, 387450, 521990, 234570
17007, -759, -1360, -786, 349090, 453810, 295260
17027, -658, -1173, -695, 321300, 392700, 326690
17047, -561, -987, -573, 326620, 352940, 325220
17067, -507, -901, -502, 345800, 323190, 318640
17087, -518, -941, -514, 344120, 282240, 340340
17107, -611, -1108, -609, 300020, 253190, 380450
17127, -745, -1374, -770, 218680, 266420, 403900
17147, -855, -1612, -874, 144340, 307650, 384650
17167, -860, -1662, -832, 121940, 336630, 332150
17187, -778, -1502, -729, 124810, 303310, 307510
17207, -697, -1324, -666, 85540, 217350, 339010
17227, -637, -1196, -625, 12180, 155960, 367990
17247, -599, -1124, -585, -39410, 152320, 346920
17267, -586, -1097, -550, -55720, 184870, 281610
17287, -588, -1107, -524, -48510, 206220, 211540
17307, -602, -1154, -534, -33530, 182770, 169400
17327, -621, -1194, -563, -35070, 119770, 162750
17347, -619, -1184, -572, -65310, 54880, 169540
17367, -591, -1126, -558, -114310, 17080, 160930
17387, -532, -997, -482, -152600, 420, 127750
17407, -462, -844, -396, -152600, -18410, 78190
17427, -403, -709, -326, -131810, -53830, 35350
17447, -361, -605, -272, -117390, -100170, 7280
17467, -330, -531, -245, -116620, -149170, -7560
17487, -322, -495, -241, -126840, -197050, -12530
17507, -308, -462, -237, -143570, -238910, -15470
17527, -292, -415, -217, -156240, -267540, -28210
17547, -298, -429, -244, -161910, -283010, -51660
17567, -301, -433, -250, -175420, -285530, -83090
17587, -288, -408, -228, -174230, -273910, -133560
17607, -291, -391, -201, -160580, -246050, -200830
17627, -308, -421, -214, -160300, -222250, -252140
17647, -345, -475, -248, -175980, -224700, -269920
17667, -371, -546, -299, -185010, -255220, -269920
17687, -399, -622, -332, -185710, -281960, -282730
17707, -446, -744, -382, -197820, -279300, -309050
17727, -514, -887, -439, -294420, -231840, -326690
17747, -664, -1198, -651, -353780, -261170, -285670
17767, -774, -1428, -791, -367850, -328720, -235620
17787, -774, -1445, -805, -367360, -354550, -224980
17807, -696, -1291, -732, -387380, -357000, -220150
17827, -608, -1111, -637, -388710, -376110, -193130
17847, -578, -1057, -623, -378910, -410620, -141190
17867, -578, -1070, -614, -367150, -427700, -90300
17887, -639, -1207, -706, -366870, -422870, -46340
17907, -724, -1408, -818, -347060, -427070, -6860
17927, -789, -1570, -885, -291200, -417060, -770
17947, -817, -1648, -913, -251370, -386120, -16730
17967, -776, -1538, -843, -221760, -378210, -17850
17987, -687, -1360, -764, -173880, -420770, 10150
18007, -592, -1182, -652, -102340, -461510, 29120
18027, -526, -1074, -594, -67970, -446530, 27440
18047, -507, -1048, -579, -75110, -396970, 25690
18067, -504, -1056, -581, -79240, -339990, 24150
18087, -499, -1057, -586, -60550, -289940, 16660
18107, -467, -1011, -549, -17150, -245140, 420
18127, -428, -939, -496, 29470, -203490, -10290
18147, -393, -869, -453, 57610, -174090, 3150
18167, -359, -795, -413, 71750, -151550, 34300
18187, -318, -703, -373, 78750, -116690, 62090
18207, -285, -629, -342, 79030, -62160, 80010
18227, -259, -555, -308, 80710, 5460, 90230
18247, -237, -489, -277, 90020, 75250, 99120
18267, -230, -447, -264, 103250, 137760, 114240
18287, -229, -413, -260, 118790, 194670, 133630
18307, -235, -392, -262, 139720, 252700, 148820
18327, -247, -372, -262, 166950, 312410, 155610
18347, -261, -359, -267, 198030, 370300, 156800
18367, -284, -361, -280, 227710, 422590, 158410
18387, -317, -397, -321, 249970, 469840, 162050
18407, -371, -470, -379, 269850, 513100, 163660
18427, -431, -551, -449, 300580, 553350, 157990
18447, -489, -654, -507, 349930, 587020, 146440
18467, -561, -820, -561, 403340, 604030, 145530
18487, -669, -1090, -653, 421540, 596330, 174930
18507, -772, -1354, -775, 387380, 553420, 239470
18527, -786, -1410, -828, 341110, 466690, 318360
18547, -695, -1235, -743, 322700, 391930, 357700
18567, -594, -1032, -610, 334110, 369530, 339710
18587, -517, -905, -500, 352380, 354830, 321930
18607, -516, -907, -493, 339150, 312970, 349720
18627, -610, -1092, -615, 276500, 266420, 411810
18647, -741, -1354, -789, 192220, 265580, 444710
18667, -865, -1611, -881, 143220, 322210, 402220
18687, -881, -1705, -843, 143780, 375480, 324030
18707, -823, -1573, -759, 136290, 339290, 305620
18727, -734, -1392, -723, 59500, 238910, 362460
18747, -665, -1252, -667, -15890, 166600, 394800
18767, -629, -1187, -619, -38780, 177660, 347760
18787, -628, -1183, -587, -47040, 225750, 265090
18807, -627, -1187, -562, -54250, 247380, 199150
18827, -633, -1209, -560, -50470, 204680, 171640
18847, -628, -1204, -560, -49000, 120260, 174790
18867, -651, -1233, -614, -81550, 48090, 182350
18887, -621, -1177, -602, -167370, 29960, 170030
18907, -524, -982, -465, -192500, 29400, 108920
18927, -444, -810, -360, -122220, -11270, 42910
18947, -395, -695, -307, -84700, -77630, 18760
18967, -361, -602, -270, -112210, -127680, 16450
18987, -349, -551, -263, -164010, -160580, 17430
19007, -354, -535, -277, -206640, -198800, 21910
19027, -333, -490, -264, -208460, -247730, 16100
19047, -303, -436, -236, -173180, -286930, -21630
19067, -284, -399, -215, -145880, -300930, -74970
19087, -291, -400, -222, -146370, -297850, -119700
19107, -301, -413, -232, -164220, -290080, -151270
19127, -314, -427, -239, -185430, -275940, -188510
19147, -325, -439, -245, -192640, -267820, -228760
19167, -335, -449, -252, -181370, -277270, -261940
19187, -341, -463, -249, -170520, -290990, -290640
19207, -366, -516, -274, -185220, -288190, -320320
19227, -413, -626, -338, -232960, -275940, -337540
19247, -466, -747, -407, -279790, -283290, -330260
19267, -546, -928, -502, -302190, -308350, -310660
19287, -670, -1206, -688, -328230, -326060, -289940
19307, -753, -1385, -752, -372260, -338870, -263270
19327, -791, -1473, -851, -396340, -330190, -261310
19347, -744, -1345, -776, -422520, -353500, -233030
19367, -652, -1178, -698, -405860, -420910, -176470
19387, -617, -1124, -666, -375480, -462560, -139650
19407, -631, -1158, -683, -367220, -483560, -95900
19427, -697, -1327, -791, -364630, -471730, -61880
19447, -766, -1479, -838, -345170, -475720, -22680
19467, -832, -1627, -933, -292320, -469000, -11410
19487, -819, -1610, -908, -209300, -464380, -10500
19507, -735, -1461, -836, -143990, -471730, -21350
19527, -647, -1282, -711, -89950, -476840, -28000
19547, -595, -1181, -660, -66850, -469350, -22400
19567, -569, -1141, -655, -64050, -460460, -4690
19587, -537, -1100, -629, -39340, -426300, -12390
19607, -518, -1082, -611, -12180, -366800, -38850
19627, -499, -1060, -583, 8470, -302540, -62650
19647, -478, -1023, -550, 32830, -255850, -68460
19667, -447, -973, -524, 51030, -232050, -49770
19687, -407, -898, -488, 65240, -205660, -27930
19707, -349, -780, -419, 79520, -158340, -16520
19727, -304, -683, -366, 89040, -101150, -4410
19747, -266, -598, -324, 97650, -47390, 18830
19767, -237, -528, -293, 109480, 6370, 45920
19787, -219, -474, -275, 120400, 65310, 73780
19807, -214, -432, -266, 129920, 133210, 98350
19827, -216, -393, -259, 142240, 208810, 116620
19847, -221, -357, -250, 160790, 284410, 130060
19867, -230, -330, -244, 182420, 351540, 145110
19887, -251, -329, -255, 199850, 408590, 165620
19907, -289, -356, -293, 211260, 462000, 185220
19927, -341, -411, -351, 227010, 518140, 192010
19947, -397, -471, -414, 261380, 575680, 180670
19967, -455, -531, -467, 318850, 629090, 157080
19987, -509, -627, -517, 386330, 667800, 139440
20007, -584, -806, -588, 434350, 679770, 152040
20027, -697, -1076, -696, 438130, 664790, 199710
20047, -816, -1348, -828, 399280, 626710, 265580
20067, -825, -1413, -878, 363370, 564830, 316120
20087, -708, -1207, -746, 385980, 490700, 332220
20107, -589, -995, -600, 421610, 428050, 344680
20127, -533, -882, -524, 405860, 379260, 378700
20147, -544, -911, -542, 356090, 345870, 422590
20167, -621, -1070, -644, 298830, 335650, 450590
20187, -748, -1324, -775, 255500, 356440, 442890
20207, -885, -1610, -877, 233030, 394730, 404670
20227, -930, -1740, -878, 199780, 418390, 366870
20247, -865, -1617, -828, 122430, 380660, 376530
20267, -761, -1406, -741, 30170, 303590, 412020
20287, -678, -1241, -663, -14070, 257740, 402290
20307, -617, -1127, -585, -21910, 261520, 344680
20327, -590, -1074, -531, -20160, 284340, 268100
20347, -594, -1095, -524, -20440, 283570, 211540
20367, -636, -1199, -570, -28630, 245630, 182910
20387, -672, -1274, -607, -55090, 196630, 167720
20407, -663, -1258, -602, -100870, 156240, 147350
20427, -609, -1152, -558, -141960, 112980, 122290
20447, -533, -993, -471, -148470, 59570, 88340
20467, -458, -832, -381, -129430, 8820, 44450
20487, -399, -693, -306, -119840, -35350, 5670
20507, -352, -581, -258, -133700, -80010, -16380
20527, -327, -505, -234, -160090, -134610, -19390
20547, -313, -455, -230, -182630, -195860, -13300
20567, -305, -428, -232, -193480, -250530, -14070
20587, -298, -409, -231, -194390, -284760, -35070
20607, -290, -381, -220, -191450, -296450, -76790
20627, -280, -351, -204, -186060, -296170, -129220
20647, -276, -333, -197, -178780, -298060, -177590
20667, -287, -341, -207, -174860, -306880, -215880
20687, -308, -369, -226, -177030, -317310, -247380
20707, -331, -407, -246, -180670, -326130, -277760
20727, -358, -460, -273, -185430, -332290, -308490
20747, -397, -552, -320, -197330, -331730, -338940
20767, -462, -705, -391, -222390, -318920, -369250
20787, -555, -911, -477, -257600, -296100, -396480
20807, -729, -1258, -671, -292740, -287070, -405020
20827, -866, -1528, -860, -338380, -329630, -367010
20847, -874, -1549, -921, -386540, -413350, -302260
20867, -758, -1333, -815, -423150, -476420, -256690
20887, -632, -1095, -669, -441700, -483070, -249900
20907, -589, -985, -607, -443940, -464100, -248780
20927, -601, -1005, -630, -434560, -487340, -196210
20947, -670, -1172, -738, -416220, -537250, -117110
20967, -766, -1415, -862, -385840, -573160, -53970
20987, -867, -1655, -967, -337750, -567910, -36680
21007, -899, -1719, -985, -296800, -526120, -58450
21027, -808, -1506, -876, -263620, -503090, -76300
21047, -701, -1296, -780, -216020, -533610, -67340
21067, -619, -1148, -696, -146510, -585130, -52430
21087, -564, -1066, -638, -72030, -600320, -62930
21107, -540, -1043, -607, -34860, -567210, -92890
21127, -540, -1062, -609, -38290, -508620, -117110
21147, -550, -1102, -640, -61180, -455420, -120400
21167, -541, -1107, -649, -70770, -418250, -111510
21187, -507, -1048, -607, -43680, -380520, -116690
21207, -446, -937, -523, 12250, -329280, -143010
21227, -380, -818, -440, 85960, -223160, -165480
21247, -316, -707, -372, 77210, -187950, -128940
21267, -277, -635, -340, 56770, -153090, -75040
21287, -250, -580, -317, 43540, -106050, -24640
21307, -226, -525, -295, 46270, -44170, 12390
21327, -209, -472, -271, 63840, 27650, 38710
21347, -198, -422, -254, 87150, 103530, 59850
21367, -288, -333, -164, 109340, 173740, 79450
21387, -221, -348, -197, 115920, 209930, 90440
21407, -184, -337, -228, 132370, 255920, 109830
21427, -207, -325, -230, 147560, 307440, 132160
21447, -235, -336, -253, 158970, 378210, 156940
21467, -288, -386, -302, 154700, 461790, 169400
21487, -358, -463, -362, 149730, 549990, 166740
21507, -435, -570, -435, 161980, 632590, 149660
21527, -533, -734, -529, 196910, 693630, 131180
21547, -672, -1009, -674, 239610, 726040, 123550
21567, -838, -1372, -832, 278180, 722470, 132510
21587, -926, -1623, -936, 318360, 657510, 162400
21607, -853, -1513, -907, 341110, 549010, 205170
21627, -716, -1197, -761, 357420, 485940, 204190
21647, -591, -932, -614, 397180, 482370, 159040
21667, -494, -776, -490, 458080, 455280, 131390
21687, -477, -804, -485, 495040, 384790, 164570
21707, -580, -1024, -592, 461720, 325570, 229880
21727, -773, -1419, -809, 379750, 319690, 267750
21747, -985, -1864, -1010, 306670, 346710, 252560
21767, -963, -1920, -969, 283990, 335790, 213990
21787, -795, -1586, -780, 285250, 206780, 242760
21807, -634, -1261, -635, 253120, 61110, 306880
21827, -559, -1094, -566, 211960, -8050, 332080
21847, -524, -1023, -534, 171850, 6720, 303870
21867, -547, -1048, -527, 136220, 60900, 242060
21887, -590, -1142, -565, 109760, 96320, 187250
21907, -639, -1259, -597, 102130, 80570, 151900
21927, -648, -1284, -599, 100660, 20230, 147140
21947, -614, -1202, -567, 74830, -54320, 161560
21967, -549, -1057, -514, 25200, -109900, 173390
21987, -477, -901, -444, -20580, -129080, 157360
22007, -412, -758, -373, -41020, -126000, 117320
22027, -361, -639, -305, -36680, -123550, 70910
22047, -320, -544, -252, -24500, -131390, 30170
22067, -291, -472, -215, -19320, -150920, 3150
22087, -268, -421, -194, -24920, -178010, -10010
22107, -254, -393, -188, -39620, -203140, -15960
22127, -248, -379, -190, -61460, -217420, -23380
22147, -244, -378, -194, -85680, -216160, -37590
22167, -240, -383, -198, -109060, -199010, -59780
22187, -244, -398, -201, -132090, -167930, -87920
22207, -263, -433, -212, -156730, -128100, -118720
22227, -296, -505, -242, -181440, -90510, -147140
22247, -341, -595, -282, -196770, -64960, -172200
22267, -386, -692, -320, -196420, -54740, -195860
22287, -442, -814, -375, -188860, -63560, -209930
22307, -515, -975, -464, -190260, -96600, -200900
22327, -608, -1154, -576, -204120, -149240, -169820
22347, -677, -1322, -693, -235970, -203420, -127470
22367, -662, -1295, -698, -284970, -244020, -85820
22387, -585, -1156, -624, -326130, -240940, -76300
22407, -542, -1061, -563, -344260, -210840, -91420
22427, -545, -1062, -557, -332570, -200620, -93520
22447, -592, -1177, -623, -302750, -220570, -74760
22467, -666, -1349, -713, -269500, -259980, -38220
22487, -750, -1531, -816, -251510, -285810, -1260
22507, -803, -1638, -888, -271810, -280840, 27860
22527, -789, -1607, -879, -297010, -268520, 48650
22547, -714, -1461, -790, -282870, -267330, 55160
22567, -643, -1319, -706, -220430, -283010, 52080
22587, -572, -1188, -629, -150850, -301000, 50330
22607, -519, -1082, -558, -107310, -304010, 50120
22627, -507, -1050, -551, -96250, -289730, 61110
22647, -524, -1083, -583, -123130, -270060, 92190
22667, -532, -1119, -614, -142870, -248430, 121170
22687, -505, -1084, -589, -117320, -219870, 122220
22707, -454, -986, -518, -57470, -176470, 91980
22727, -397, -873, -436, 6160, -128100, 57890
22747, -364, -798, -399, 39900, -92190, 54390
22767, -338, -728, -374, 38430, -73500, 89810
22787, -318, -669, -355, 29470, -53550, 134400
22807, -305, -627, -343, 25830, -18200, 166530
22827, -293, -582, -332, 28980, 34510, 179270
22847, -282, -538, -316, 46760, 97650, 174090
22867, -271, -495, -300, 80430, 161350, 158690
22887, -277, -453, -268, 121870, 218540, 145460
22907, -287, -442, -259, 162470, 265720, 141470
22927, -295, -432, -246, 198310, 288820, 147000
22947, -299, -437, -244, 219030, 301700, 136640
22967, -279, -457, -288, 222110, 309260, 123760
22987, -307, -490, -346, 205450, 351120, 101150
23007, -383, -572, -356, 194180, 438760, 96810
23027, -379, -609, -405, 246120, 433650, 96460
23047, -439, -711, -420, 303590, 414610, 112910
23067, -456, -825, -481, 353990, 353150, 158410
23087, -565, -1038, -581, 344330, 315420, 214130
23107, -648, -1208, -669, 290430, 312690, 251580
23127, -695, -1299, -715, 244930, 312410, 263900
23147, -630, -1207, -667, 249410, 268730, 263270
23167, -564, -1087, -586, 284480, 211470, 265580
23187, -523, -1019, -539, 286090, 175350, 276780
23207, -528, -1020, -513, 247730, 164500, 294490
23227, -600, -1160, -594, 184590, 150430, 322560
23247, -710, -1392, -751, 110390, 143150, 341740
23267, -815, -1601, -854, 82110, 157290, 312130
23287, -810, -1631, -811, 107870, 163940, 251510
23307, -738, -1488, -693, 126560, 109900, 235690
23327, -699, -1376, -674, 65450, 24850, 286230
23347, -663, -1298, -672, -23520, -18060, 316050
23367, -634, -1242, -635, -57890, 490, 275590
23387, -617, -1205, -583, -48370, 27510, 203840
23407, -617, -1200, -564, -29330, 9940, 159250
23427, -625, -1207, -571, -21910, -59220, 155260
23447, -615, -1185, -576, -37870, -126280, 156520
23467, -584, -1126, -559, -72520, -156590, 138320
23487, -541, -1025, -502, -102550, -155120, 96740
23507, -496, -912, -440, -113260, -161700, 57400
23527, -453, -802, -386, -103460, -201250, 35560
23547, -411, -706, -347, -93450, -252560, 23520
23567, -374, -624, -314, -98490, -283710, 5390
23587, -341, -546, -279, -109410, -294420, -21560
23607, -318, -485, -249, -115290, -299880, -50120
23627, -293, -432, -226, -121870, -306950, -73780
23647, -271, -384, -205, -132160, -313460, -91350
23667, -263, -366, -201, -155750, -312340, -103110
23687, -267, -380, -215, -191380, -299950, -113820
23707, -274, -397, -225, -217560, -280770, -130690
23727, -278, -415, -229, -227150, -256830, -158760
23747, -287, -444, -237, -228060, -230720, -191520
23767, -310, -509, -264, -230230, -207620, -216860
23787, -343, -591, -295, -236740, -192640, -226100
23807, -391, -701, -343, -249060, -188020, -219380
23827, -469, -866, -444, -270130, -208180, -185360
23847, -572, -1070, -569, -289940, -259210, -123550
23867, -692, -1350, -748, -310310, -297360, -73990
23887, -743, -1476, -802, -316820, -300790, -66360
23907, -701, -1385, -738, -292390, -295120, -76370
23927, -618, -1200, -650, -278180, -309260, -66500
23947, -552, -1049, -576, -277410, -343420, -29470
23967, -547, -1037, -586, -267050, -375620, 10780
23987, -579, -1123, -630, -242620, -394940, 40180
24007, -633, -1266, -691, -197470, -396760, 46970
24027, -710, -1441, -773, -170240, -374780, 40110
24047, -796, -1603, -872, -179970, -343770, 38150
24067, -792, -1611, -892, -187950, -330960, 41020
24087, -699, -1423, -771, -131390, -351120, 32830
24107, -604, -1243, -657, -32200, -387030, 21000
24127, -546, -1127, -604, 19530, -405160, 19040
24147, -513, -1068, -584, -420, -386120, 28910
24167, -498, -1047, -577, -27090, -345450, 33110
24187, -495, -1049, -572, -31850, -290220, 22050
24207, -488, -1050, -567, -3710, -248220, 7910
24227, -482, -1047, -562, 42140, -224280, 2030
24247, -462, -1014, -541, 69720, -193480, 2940
24267, -422, -930, -489, 80500, -152110, 8470
24287, -373, -825, -427, 88550, -108780, 18340
24307, -324, -716, -377, 89950, -68600, 37030
24327, -288, -633, -343, 90580, -35910, 66360
24347, -263, -566, -319, 97510, 2660, 94920
24367, -247, -505, -299, 105420, 59360, 114170
24387, -235, -444, -274, 119070, 127260, 125160
24407, -227, -386, -252, 144340, 193900, 133280
24427, -225, -343, -238, 172760, 254660, 144340
24447, -231, -317, -234, 192710, 310240, 160650
24467, -249, -312, -247, 204190, 361340, 180600
24487, -279, -330, -278, 212730, 409920, 198170
24507, -323, -373, -323, 223790, 462350, 203910
24527, -382, -434, -383, 244370, 520800, 191030
24547, -433, -506, -438, 284410, 576800, 162890
24567, -487, -616, -498, 346080, 617750, 134050
24587, -559, -820, -562, 413420, 632940, 126350
24607, -720, -1192, -692, 455490, 620060, 157150
24627, -912, -1604, -922, 427630, 581700, 233100
24647, -842, -1527, -920, 331660, 525700, 315490
24667, -663, -1159, -688, 301700, 453110, 338100
24687, -508, -872, -504, 358400, 393330, 320390
24707, -458, -774, -424, 386820, 350140, 318080
24727, -491, -848, -473, 279860, 281260, 409920
24747, -622, -1111, -635, 211610, 276080, 442260
24767, -806, -1481, -854, 173600, 304360, 421050
24787, -949, -1793, -968, 164360, 364770, 341460
24807, -905, -1756, -852, 155400, 378560, 281820
24827, -773, -1478, -708, 89390, 287140, 324590
24847, -672, -1241, -636, -4200, 184450, 389970
24867, -603, -1106, -601, -68250, 161700, 385210
24887, -557, -1018, -541, -79590, 205450, 304990
24907, -536, -981, -484, -49770, 241990, 211400
24927, -556, -1037, -485, -17920, 223440, 158760
24947, -611, -1171, -540, -12740, 161140, 149170
24967, -690, -1334, -631, -54530, 100800, 157990
24987, -715, -1384, -682, -129220, 62020, 154980
25007, -660, -1267, -629, -178150, 31430, 127680
25027, -569, -1067, -520, -175420, -4480, 81550
25047, -470, -858, -400, -147140, -49560, 34230
25067, -392, -682, -309, -124390, -103320, 2450
25087, -345, -562, -257, -126280, -157710, -10570
25107, -315, -484, -230, -146020, -206220, -13090
25127, -298, -432, -216, -166460, -247590, -15260
25147, -287, -400, -213, -185080, -279090, -21490
25167, -284, -386, -218, -201390, -298410, -36260
25187, -281, -379, -224, -209090, -305270, -64190
25207, -277, -368, -224, -203000, -302050, -106750
25227, -276, -363, -220, -186970, -289940, -161000
25247, -278, -362, -213, -171430, -269780, -220220
25267, -294, -384, -212, -166110, -244440, -275940
25287, -322, -435, -226, -173880, -223860, -319410
25307, -366, -523, -264, -188790, -222320, -342650
25327, -434, -669, -350, -204540, -248640, -341180
25347, -532, -894, -470, -222180, -286860, -327040
25367, -681, -1220, -640, -254730, -309330, -316680
25387, -826, -1519, -824, -309680, -320110, -305060
25407, -798, -1439, -814, -371980, -351960, -275870
25427, -649, -1128, -676, -414540, -400750, -237090
25447, -536, -914, -561, -418040, -433020, -213570
25467, -510, -874, -538, -413420, -432670, -196840
25487, -540, -952, -568, -401450, -433300, -165410
25507, -595, -1089, -640, -375410, -445410, -122220
25527, -688, -1290, -749, -356930, -459480, -74690
25547, -828, -1567, -903, -347410, -471310, -28210
25567, -927, -1799, -1060, -334810, -479570, 3290
25587, -869, -1699, -967, -278250, -483070, -6510
25607, -706, -1406, -768, -196210, -469070, -50190
25627, -612, -1149, -643, -148820, -476630, -61040
25647, -558, -1048, -620, -117670, -513170, -32060
25667, -525, -1017, -604, -82810, -544950, -2030
25687, -507, -1018, -586, -51940, -514150, -13650
25707, -524, -1070, -597, -44030, -436240, -47670
25727, -542, -1119, -617, -58030, -359520, -66430
25747, -547, -1142, -636, -58240, -311640, -68740
25767, -503, -1073, -605, -26600, -286440, -67060
25787, -440, -944, -512, 35070, -262220, -75670
25807, -374, -821, -429, 84630, -226590, -80710
25827, -317, -723, -373, 98420, -195300, -60970
25847, -279, -631, -334, 90090, -166320, -20440
25867, -250, -571, -314, 70630, -114590, 14840
25887, -235, -517, -289, 52500, -41370, 38010
25907, -219, -466, -267, 51800, 38850, 52150
25927, -209, -421, -249, 71050, 111510, 65100
25947, -206, -387, -236, 99960, 172410, 83930
25967, -210, -363, -236, 129780, 222250, 110810
25987, -227, -361, -251, 155260, 269080, 141680
26007, -256, -373, -277, 173950, 323400, 166460
26027, -296, -404, -310, 185850, 392210, 176260
26047, -355, -451, -352, 195650, 471310, 169820
26067, -414, -523, -405, 212870, 547680, 152460
26087, -486, -640, -484, 240590, 611520, 130550
26107, -583, -818, -589, 276290, 657300, 112980
26127, -681, -1046, -678, 319130, 683200, 103460
26147, -790, -1344, -774, 370020, 671020, 114520
26167, -889, -1595, -906, 389200, 604730, 168000
26187, -821, -1472, -887, 337260, 520660, 237300
26207, -655, -1129, -699, 312760, 453530, 254730
26227, -502, -852, -516, 390810, 397880, 222600
26247, -443, -766, -446, 475790, 330610, 214340
26267, -499, -880, -510, 471310, 275380, 252910
26287, -625, -1129, -647, 387170, 270410, 296520
26307, -771, -1449, -799, 298620, 298760, 309260
26327, -865, -1691, -867, 258160, 315490, 288890
26347, -859, -1709, -846, 256900, 284900, 269990
26367, -763, -1512, -753, 225540, 209930, 288260
26387, -674, -1327, -667, 166740, 115570, 326900
26407, -613, -1199, -618, 132510, 38780, 352100
26427, -590, -1134, -578, 104370, 19460, 336770
26447, -593, -1141, -557, 70140, 60620, 280280
26467, -612, -1173, -552, 49000, 94920, 216160
26487, -612, -1180, -521, 57050, -10290, 183470
26507, -626, -1235, -639, -4480, -89040, 215040
26527, -607, -1154, -598, -41650, -105070, 194250
26547, -494, -946, -450, -31430, -50540, 90930
26567, -427, -783, -334, -16520, -59990, 34300
26587, -386, -689, -305, -32970, -126980, 48930
26607, -368, -628, -289, -56560, -202930, 79100
26627, -338, -567, -281, -68110, -247380, 84420
26647, -317, -513, -258, -79170, -252350, 57960
26667, -288, -467, -243, -100100, -222600, 7280
26687, -270, -427, -214, -117460, -180600, -52990
26707, -264, -397, -191, -123130, -160440, -95340
26727, -253, -363, -168, -115570, -169470, -119560
26747, -248, -348, -166, -109550, -196280, -130130
26767, -245, -360, -184, -126980, -212240, -137270
26787, -259, -402, -210, -163380, -199640, -151830
26807, -280, -454, -230, -202580, -160090, -181020
26827, -316, -528, -259, -230160, -115920, -215740
26847, -362, -624, -295, -236250, -96110, -238700
26867, -430, -783, -370, -232820, -108640, -240940
26887, -541, -1028, -493, -238140, -146720, -217350
26907, -716, -1385, -706, -273140, -195510, -171150
26927, -836, -1640, -880, -332920, -234220, -130550
26947, -775, -1510, -818, -357770, -255640, -123340
26967, -657, -1264, -687, -340130, -284830, -121240
26987, -565, -1078, -582, -315700, -310940, -111160
27007, -529, -1005, -552, -317870, -325710, -84770
27027, -535, -1022, -566, -328930, -334810, -44170
27047, -587, -1142, -635, -322000, -341740, -6930
27067, -667, -1337, -740, -296240, -347410, 20860
27087, -773, -1561, -850, -266980, -340690, 33040
27107, -831, -1697, -935, -261100, -310310, 29050
27127, -766, -1562, -843, -237370, -292390, 13580
27147, -633, -1280, -678, -163450, -317380, 9170
27167, -540, -1091, -578, -95130, -372190, 34230
27187, -493, -996, -539, -76580, -396200, 67060
27207, -469, -974, -540, -92960, -371000, 85400
27227, -467, -987, -540, -101500, -312200, 79660
27247, -472, -1011, -540, -83300, -241430, 55300
27267, -481, -1039, -546, -52290, -183050, 33880
27287, -480, -1046, -547, -16870, -150430, 32690
27307, -453, -995, -521, 17990, -135310, 49140
27327, -407, -892, -468, 50960, -119980, 69020
27347, -349, -763, -395, 77630, -92540, 84070
27367, -294, -635, -331, 87920, -50050, 96670
27387, -261, -551, -297, 80500, 280, 116200
27407, -244, -488, -277, 70770, 56420, 136430
27427, -236, -444, -266, 72800, 118230, 148680
27447, -232, -404, -257, 91630, 181510, 150920
27467, -230, -367, -245, 124880, 241080, 147210
27487, -237, -343, -240, 163800, 293930, 143990
27507, -248, -339, -249, 197890, 339710, 145810
27527, -274, -359, -274, 222600, 382410, 151480
27547, -310, -404, -317, 243320, 424830, 155400
27567, -360, -470, -372, 270130, 466830, 152390
27587, -424, -573, -438, 307230, 507640, 142100
27607, -486, -704, -495, 349930, 540680, 132370
27627, -560, -895, -563, 387380, 553280, 137900
27647, -682, -1180, -672, 400750, 531650, 175000
27667, -792, -1432, -801, 365470, 485030, 240380
27687, -762, -1404, -799, 299460, 431760, 297920
27707, -639, -1166, -656, 273910, 370440, 323610
27727, -521, -948, -528, 299180, 307860, 329490
27747, -471, -849, -473, 318010, 254380, 339710
27767, -476, -865, -487, 302190, 226520, 358260
27787, -555, -1014, -559, 260680, 232680, 367640
27807, -715, -1340, -726, 207900, 264810, 363930
27827, -883, -1689, -879, 155260, 299880, 347060
27847, -922, -1809, -911, 108150, 321510, 321090
27867, -810, -1578, -778, 72870, 290360, 307020
27887, -680, -1307, -647, 49140, 202860, 325290
27907, -609, -1157, -595, 18690, 128240, 343280
27927, -576, -1086, -563, -29260, 117110, 327600
27947, -562, -1054, -522, -67550, 155820, 271110
27967, -561, -1058, -498, -76090, 187810, 203000
27987, -586, -1118, -516, -61040, 166880, 160300
28007, -606, -1168, -545, -51730, 100240, 152600
28027, -657, -1256, -630, -75390, 32480, 157710
28047, -618, -1187, -602, -133840, -5670, 154070
28067, -522, -989, -459, -145320, -27370, 110180
28087, -449, -823, -363, -101430, -44660, 39900
28107, -416, -720, -329, -106750, -78750, 9590
28127, -392, -641, -308, -158620, -126630, 17360
28147, -372, -591, -306, -193200, -186270, 28210
28167, -344, -527, -282, -187670, -247520, 22470
28187, -302, -442, -238, -151270, -291480, -8820
28207, -270, -376, -198, -123760, -299180, -65030
28227, -259, -343, -181, -167230, -276640, -140420
28247, -269, -344, -194, -199990, -286370, -142730
28267, -274, -353, -209, -218190, -297920, -151620
28287, -278, -356, -215, -221410, -296660, -181300
28307, -284, -375, -217, -220570, -278740, -225680
28327, -307, -430, -241, -227920, -252700, -268520
28347, -346, -515, -278, -236950, -226940, -305760
28367, -397, -634, -327, -247100, -205100, -335300
28387, -477, -829, -419, -260400, -202650, -343280
28407, -618, -1114, -554, -274540, -236880, -314160
28427, -796, -1479, -781, -316750, -293580, -261520
28447, -854, -1590, -896, -365960, -360780, -208320
28467, -720, -1320, -770, -372610, -424760, -167790
28487, -585, -1056, -623, -359240, -442960, -156660
28507, -496, -891, -521, -370160, -417480, -152250
28527, -495, -876, -522, -390740, -399840, -118090
28547, -545, -985, -594, -387520, -413140, -63070
28567, -615, -1164, -687, -333760, -437640, -24010
28587, -716, -1413, -788, -256410, -442400, -19250
28607, -858, -1718, -935, -225190, -417200, -24780
28627, -908, -1810, -1009, -235340, -404180, -15610
28647, -783, -1545, -871, -219030, -421820, -5530
28667, -631, -1238, -700, -150990, -451150, -7210
28687, -520, -1018, -574, -75390, -470540, -11550
28707, -466, -934, -529, -30310, -467250, -11130
28727, -448, -919, -513, -17500, -431410, -14770
28747, -456, -960, -521, -28140, -367990, -21630
28767, -490, -1040, -563, -52430, -299040, -21280
28787, -521, -1115, -612, -60340, -251020, -10570
28807, -514, -1110, -611, -23520, -221200, -7140
28827, -458, -1002, -549, 43330, -190680, -20020
28847, -384, -847, -443, 109060, -154630, -34160
28867, -316, -713, -363, 133420, -114870, -25690
28887, -273, -615, -311, 113610, -76020, 11970
28907, -243, -535, -288, 83300, -32620, 59920
28927, -228, -485, -275, 63840, 21770, 98770
28947, -222, -446, -263, 62510, 87430, 120050
28967, -222, -411, -255, 81830, 156310, 128030
28987, -227, -387, -250, 115570, 220220, 130690
29007, -238, -379, -258, 150920, 278950, 134820
29027, -262, -391, -278, 179900, 337330, 139720
29047, -299, -424, -312, 203280, 398510, 142870
29067, -346, -478, -352, 225610, 460040, 141820
29087, -405, -559, -404, 247170, 518210, 138320
29107, -489, -681, -487, 261520, 572110, 133420
29127, -569, -851, -571, 269290, 614390, 129850
29147, -630, -999, -639, 288330, 626150, 133140
29167, -652, -1085, -664, 329280, 591500, 152460
29187, -635, -1082, -645, 369530, 524020, 188930
29207, -607, -1034, -626, 375480, 457170, 233870
29227, -577, -970, -599, 355600, 417830, 263130
29247, -552, -929, -572, 356090, 396200, 264460
29267, -538, -940, -561, 385910, 364770, 259280
29287, -568, -1037, -588, 412160, 321300, 267400
29307, -664, -1240, -673, 390180, 293300, 292390
29327, -796, -1479, -805, 308910, 295820, 316400
29347, -831, -1600, -840, 213570, 306040, 322770
29367, -767, -1489, -760, 164010, 276850, 320110
29387, -670, -1307, -659, 162680, 202160, 325850
29407, -611, -1182, -592, 163100, 124950, 339010
29427, -585, -1129, -577, 134680, 90020, 342160
29447, -591, -1131, -579, 84910, 98980, 324240
29467, -612, -1165, -583, 37800, 132370, 284550
29487, -622, -1198, -573, 12950, 153650, 235060
29507, -626, -1209, -563, 11760, 129430, 200130
29527, -621, -1199, -566, 10010, 63980, 194320
29547, -578, -1108, -533, -12110, -9870, 203700
29567, -544, -1030, -511, -47600, -56140, 196070
29587, -491, -923, -468, -93030, -62790, 164640
29607, -434, -791, -377, -108850, -52150, 108500
29627, -379, -667, -289, -78890, -50400, 42000
29647, -350, -589, -249, -48860, -87570, 3500
29667, -337, -550, -251, -50400, -155400, 6230
29687, -336, -543, -270, -79240, -222670, 25830
29707, -338, -549, -289, -114380, -261100, 32690
29727, -332, -539, -288, -138950, -265650, 11480
29747, -325, -527, -275, -144830, -243460, -40600
29767, -330, -533, -271, -144340, -210070, -105420
29787, -338, -534, -263, -145810, -182070, -162610
29807, -340, -523, -251, -148470, -170870, -202230
29827, -333, -504, -244, -155120, -182420, -222320
29847, -335, -505, -255, -164920, -214410, -224630
29867, -348, -549, -293, -187320, -248570, -217070
29887, -370, -609, -317, -222530, -262780, -214130
29907, -417, -717, -371, -249410, -256340, -220360
29927, -496, -892, -483, -280210, -246540, -219240
29947, -557, -1045, -560, -319200, -241150, -210140
29967, -639, -1216, -645, -336070, -234570, -209930
29987, -721, -1370, -732, -356090, -252420, -187040
30007, -736, -1391, -765, -346360, -302050, -161000
30027, -671, -1294, -746, -321160, -385910, -107870
30047, -578, -1089, -593, -284130, -392000, -100240
30067, -509, -963, -533, -306390, -371070, -81550
30087, -559, -1034, -592, -342860, -379610, -18480
30107, -625, -1186, -693, -331940, -406630, 36750
30127, -712, -1422, -835, -284760, -401380, 44660
30147, -759, -1539, -833, -218050, -344610, -11900
30167, -759, -1550, -830, -181860, -303800, -45640
30187, -701, -1409, -746, -131320, -356930, -17220
30207, -611, -1225, -676, -98070, -419020, 32130
30227, -545, -1097, -610, -92330, -435120, 60060
30247, -485, -996, -558, -81830, -388850, 48090
30267, -457, -942, -524, -62160, -332990, 26950
30287, -420, -895, -489, -29190, -273770, -1610
30307, -405, -879, -461, -1190, -219030, -19810
30327, -401, -882, -466, 5040, -174580, -12740
30347, -395, -866, -452, 13300, -146510, 15680
30367, -379, -828, -432, 33110, -124670, 44520
30387, -354, -777, -418, 53760, -99050, 67760
30407, -323, -709, -380, 77770, -59990, 78610
30427, -286, -619, -336, 98350, -980, 79590
30447, -266, -557, -308, 103460, 69160, 83230
30467, -257, -513, -293, 99540, 140070, 93590
30487, -253, -468, -279, 104510, 205240, 104580
30507, -249, -427, -262, 124180, 259280, 115640
30527, -249, -396, -254, 148190, 302890, 130830
30547, -260, -387, -261, 167650, 340620, 149730
30567, -280, -397, -283, 183260, 379610, 164570
30587, -313, -426, -317, 201950, 423850, 168490
30607, -355, -475, -362, 229530, 471240, 159180
30627, -403, -540, -413, 270550, 515480, 140420
30647, -468, -660, -478, 323750, 546560, 122850
30667, -552, -852, -561, 370720, 557970, 123410
30687, -664, -1125, -667, 390390, 548940, 147630
30707, -783, -1410, -796, 376600, 511910, 195370
30727, -787, -1445, -823, 339010, 448630, 248570
30747, -679, -1228, -706, 312900, 391720, 272930
30767, -558, -999, -565, 315420, 348040, 273490
30787, -481, -866, -473, 328720, 299740, 279580
30807, -468, -862, -471, 330400, 240030, 310730
30827, -532, -989, -555, 301210, 199570, 348460
30847, -646, -1213, -675, 249270, 212940, 357210
30867, -786, -1498, -802, 200060, 265510, 322630
30887, -826, -1620, -803, 168630, 304710, 271670
30907, -787, -1544, -750, 143010, 270620, 262220
30927, -700, -1358, -675, 95620, 171150, 309470
30947, -628, -1206, -614, 49210, 85330, 346570
30967, -579, -1105, -570, 17500, 60620, 335510
30987, -543, -1036, -522, -4130, 85400, 281680
31007, -529, -1006, -484, -11480, 116130, 216720
31027, -534, -1020, -472, -9520, 114940, 169400
31047, -561, -1071, -488, -9730, 73990, 151200
31067, -579, -1099, -508, -28700, 13440, 154420
31087, -583, -1109, -549, -71400, -45290, 162120
31107, -551, -1029, -520, -114170, -88130, 157080
31127, -480, -890, -433, -120820, -94500, 105980
31147, -413, -738, -332, -102130, -84350, 26670
31167, -366, -623, -275, -72660, -117110, -17010
31187, -345, -557, -258, -75250, -178920, -16520
31207, -324, -506, -249, -103670, -232470, -6650
31227, -308, -463, -236, -128800, -265370, -11550
31247, -293, -433, -231, -143430, -284480, -28350
31267, -290, -423, -229, -152600, -292390, -54040
31287, -287, -423, -235, -165410, -282870, -90090
31307, -286, -421, -228, -175560, -262640, -133770
31327, -288, -421, -222, -174160, -243670, -175210
31347, -303, -457, -237, -173460, -229810, -207550
31367, -336, -529, -272, -194950, -208740, -234850
31387, -374, -612, -306, -223230, -184800, -261520
31407, -427, -727, -355, -231350, -176470, -281890
31427, -497, -880, -437, -227780, -201740, -276710
31447, -592, -1089, -571, -240520, -249270, -243950
31467, -691, -1296, -701, -286090, -289380, -202580
31487, -740, -1414, -799, -337540, -311570, -168210
31507, -685, -1311, -730, -369880, -317170, -154840
31527, -579, -1087, -589, -360220, -309330, -166320
31547, -545, -987, -549, -331520, -328790, -153230
31567, -556, -1051, -629, -331800, -366870, -101780
31587, -579, -1124, -640, -343980, -396900, -46480
31607, -623, -1252, -691, -290920, -394660, -35560
31627, -693, -1380, -734, -253540, -368270, -35980
31647, -773, -1515, -841, -251090, -346220, -20860
31667, -775, -1553, -899, -272580, -362460, 27790
31687, -681, -1390, -775, -248080, -388290, 49280
31707, -588, -1196, -630, -152250, -377160, 11620
31727, -525, -1073, -559, -49630, -370650, -2030
31747, -503, -1026, -554, -67200, -381080, 44100
31767, -497, -1038, -582, -82250, -360710, 70280
31787, -491, -1042, -576, -69440, -301490, 57610
31807, -479, -1026, -556, -27860, -237580, 26600
31827, -452, -979, -520, 23170, -194390, 6020
31847, -419, -919, -481, 55580, -163590, 6930
31867, -378, -840, -438, 66010, -131670, 23030
31887, -340, -753, -389, 65800, -94150, 47950
31907, -307, -673, -348, 62860, -54110, 76160
31927, -284, -611, -323, 65590, -17010, 106820
31947, -270, -567, -313, 75390, 22960, 132510
31967, -259, -532, -311, 89670, 79240, 144480
31987, -262, -502, -306, 109830, 152740, 139720
32007, -265, -473, -297, 137830, 231840, 126280
32027, -272, -446, -286, 167650, 303170, 116410
32047, -282, -436, -285, 190400, 360220, 118580
32067, -300, -445, -296, 202160, 403970, 132650
32087, -328, -480, -331, 208180, 438760, 151900
32107, -369, -524, -371, 219240, 471100, 165270
32127, -408, -577, -410, 244720, 502740, 164430
32147, -444, -634, -449, 284130, 525910, 155820
32167, -483, -716, -490, 326270, 533610, 153580
32187, -524, -829, -528, 359590, 522340, 168070
32207, -575, -959, -578, 374990, 489300, 204680
32227, -633, -1089, -650, 363790, 445620, 252490
32247, -659, -1158, -687, 344190, 410480, 282800
32267, -646, -1148, -673, 336700, 388430, 287140
32287, -610, -1091, -609, 336000, 367430, 284410
32307, -580, -1056, -563, 325990, 327880, 302050
32327, -593, -1094, -586, 287910, 274610, 341950
32347, -637, -1192, -652, 232400, 238070, 375200
32367, -697, -1313, -720, 186130, 235690, 374220
32387, -726, -1388, -731, 162190, 255150, 338800
32407, -723, -1395, -697, 149170, 259840, 304360
32427, -703, -1353, -672, 116060, 227080, 303590
32447, -679, -1304, -658, 63140, 176820, 322490
32467, -659, -1265, -647, 16100, 141820, 324660
32487, -639, -1227, -617, -15680, 135240, 294140
32507, -611, -1177, -579, -31500, 138180, 246890
32527, -585, -1129, -543, -34440, 122080, 205660
32547, -566, -1087, -510, -32060, 83790, 179620
32567, -549, -1050, -487, -40810, 40390, 164640
32587, -538, -1015, -476, -73780, 5670, 152110
32607, -526, -984, -481, -122220, -20370, 136290
32627, -494, -913, -448, -146580, -48510, 109760
32647, -453, -821, -390, -127260, -81060, 67550
32667, -406, -719, -332, -94010, -119000, 24150
32687, -374, -638, -293, -81340, -159670, -5530
32707, -353, -575, -270, -99190, -196840, -19180
32727, -340, -530, -261, -129850, -229880, -25480
32747, -333, -505, -264, -153860, -261450, -32340
32767, -322, -477, -255, -161840, -288680, -47880
32787, -312, -456, -249, -161490, -301210, -78050
32807, -307, -446, -242, -168140, -296100, -118300
32827, -310, -445, -247, -178570, -282940, -159250
32847, -318, -463, -253, -184730, -272020, -195440
32867, -332, -489, -265, -188790, -263340, -227990
32887, -348, -528, -274, -195790, -251370, -259840
32907, -378, -601, -307, -213360, -237440, -286650
32927, -432, -713, -359, -235690, -237230, -294280
32947, -515, -893, -471, -260400, -257600, -279020
32967, -612, -1109, -610, -286860, -295750, -247380
32987, -684, -1276, -700, -302960, -333620, -218610
33007, -695, -1314, -721, -325920, -340480, -207410
33027, -669, -1247, -704, -366100, -328720, -199290
33047, -626, -1161, -660, -386260, -349930, -165200
33067, -577, -1060, -607, -366310, -395430, -120470
33087, -548, -1029, -587, -329000, -425460, -89670
33107, -604, -1143, -671, -306670, -429380, -64470
33127, -637, -1263, -724, -319270, -411880, -34300
33147, -714, -1401, -744, -283710, -397950, -25480
33167, -782, -1558, -858, -214200, -399070, -18060
33187, -812, -1589, -894, -219100, -412300, 11550
33207, -703, -1418, -823, -215880, -425530, 36050
33227, -583, -1177, -645, -154560, -426510, 17920
33247, -501, -1018, -533, -71820, -398090, -28350
33267, -487, -982, -534, -27090, -392140, -30940
33287, -488, -1006, -569, -40180, -399350, 9240
33307, -480, -1015, -571, -54530, -387100, 41300
33327, -474, -1016, -556, -38500, -333830, 30450
33347, -463, -1002, -535, -12460, -260470, -1260
33367, -446, -974, -515, 18270, -201110, -21420
33387, -421, -934, -501, 53410, -181230, -9940
33407, -385, -854, -456, 73500, -165900, 15750
33427, -336, -747, -391, 76720, -116270, 25410
33447, -294, -646, -338, 82740, -58940, 32060
33467, -266, -576, -307, 89390, -16660, 55300
33487, -245, -513, -291, 101570, 58520, 121520
33507, -235, -470, -284, 117180, 113890, 139930
33527, -235, -433, -274, 133770, 188300, 142450
33547, -242, -405, -267, 150640, 270200, 136290
33567, -249, -378, -259, 170730, 342440, 132090
33587, -266, -371, -267, 190680, 398580, 137130
33607, -293, -392, -291, 206920, 445130, 146860
33627, -330, -434, -327, 224140, 489930, 151900
33647, -379, -499, -382, 250880, 530320, 149380
33667, -441, -593, -449, 289660, 565040, 140070
33687, -510, -718, -517, 334600, 592970, 129640
33707, -595, -925, -593, 371140, 598850, 136080
33727, -697, -1184, -697, 377370, 566510, 177380
33747, -763, -1358, -794, 352660, 500990, 237230
33767, -722, -1288, -771, 342370, 431830, 273700
33787, -613, -1072, -645, 362390, 387800, 273420
33807, -524, -900, -522, 382620, 359590, 267540
33827, -485, -847, -474, 369460, 323470, 287910
33847, -513, -919, -510, 325710, 283150, 329210
33867, -598, -1102, -617, 279370, 254380, 363370
33887, -720, -1353, -758, 243810, 254310, 362110
33907, -826, -1584, -842, 220150, 280630, 323190
33927, -840, -1641, -809, 189560, 289590, 287700
33947, -770, -1497, -733, 135450, 232750, 303030
33967, -694, -1332, -669, 77630, 136780, 350490
33987, -623, -1189, -611, 37310, 79590, 362880
34007, -577, -1099, -560, 12880, 84210, 323820
34027, -559, -1061, -526, -1330, 112560, 260120
34047, -563, -1078, -517, -2800, 120190, 204820
34067, -584, -1123, -522, -770, 89040, 176610
34087, -587, -1125, -521, -17080, 37380, 169890
34107, -596, -1129, -541, -61530, -14700, 171920
34127, -576, -1092, -561, -119000, -52360, 167370
34147, -508, -945, -458, -121730, -72730, 123410
34167, -439, -807, -376, -89390, -83090, 55650
34187, -392, -685, -304, -65380, -117810, 15750
34207, -350, -585, -262, -72940, -164780, 5460
34227, -330, -524, -248, -104020, -208390, 7000
34247, -322, -491, -247, -136990, -245490, 10150
34267, -309, -469, -251, -155820, -270830, 560
34287, -304, -455, -243, -158690, -277690, -31990
34307, -298, -448, -243, -160930, -263970, -81620
34327, -289, -421, -223, -158620, -247520, -133630
34347, -285, -415, -220, -153160, -237440, -175770
34367, -294, -428, -222, -161350, -233240, -202790
34387, -316, -477, -246, -183540, -223160, -224420
34407, -342, -533, -273, -213010, -208390, -245420
34427, -374, -599, -296, -230300, -201670, -263200
34447, -426, -723, -362, -241360, -211680, -266630
34467, -512, -909, -468, -260470, -240800, -247940
34487, -625, -1158, -624, -282100, -280560, -214270
34507, -701, -1340, -733, -316330, -299320, -190960
34527, -705, -1347, -733, -360990, -277130, -199570
34547, -665, -1233, -675, -372330, -282170, -193970
34567, -598, -1101, -627, -351190, -342510, -152390
34587, -542, -1009, -575, -319760, -406000, -105910
34607, -538, -1018, -580, -312900, -410410, -81410
34627, -584, -1124, -638, -328580, -382900, -61180
34647, -656, -1274, -707, -326340, -368620, -32830
34667, -732, -1441, -803, -288960, -381850, -1680
34687, -776, -1542, -860, -258370, -390040, 17500
34707, -741, -1488, -834, -236600, -375270, 12740
34727, -660, -1319, -716, -189770, -366730, -4970
34747, -577, -1155, -609, -113330, -385560, -11970
34767, -543, -1089, -592, -71050, -412160, 5670
34787, -531, -1076, -600, -80360, -418740, 39410
34807, -530, -1102, -619, -92610, -388710, 51870
34827, -517, -1095, -602, -77420, -333690, 33670
34847, -495, -1061, -562, -32970, -272860, -4340
34867, -468, -1014, -530, 11760, -230580, -25760
34887, -441, -959, -505, 32760, -210490, -14560
34907, -401, -876, -465, 36050, -193690, 13230
34927, -356, -781, -415, 45220, -165690, 33950
34947, -310, -683, -359, 62230, -127820, 45850
34967, -274, -602, -321, 78330, -83090, 56140
34987, -252, -544, -298, 86310, -31500, 69300
35007, -238, -500, -284, 89530, 27230, 84210
35027, -234, -458, -269, 96810, 92470, 96110
35047, -236, -424, -258, 110950, 160510, 104440
35067, -239, -402, -254, 128170, 224910, 112490
35087, -251, -393, -255, 144550, 281960, 123830
35107, -269, -397, -269, 158760, 332920, 136570
35127, -298, -426, -299, 172900, 379960, 146930
35147, -342, -477, -345, 190330, 423710, 152670
35167, -398, -560, -406, 212870, 468230, 149590
35187, -467, -671, -476, 243530, 514850, 134960
35207, -539, -823, -549, 285320, 555450, 114520
35227, -625, -1031, -623, 368620, 552020, 128310
35247, -722, -1288, -728, 368200, 493360, 182140
35267, -746, -1354, -784, 331520, 430360, 234010
35287, -666, -1194, -698, 315000, 392420, 244370
35307, -566, -992, -579, 339220, 362040, 232120
35327, -492, -866, -485, 365330, 315980, 236320
35347, -471, -859, -470, 364700, 256830, 271810
35367, -528, -986, -545, 328230, 214970, 314370
35387, -634, -1198, -667, 277550, 216090, 327040
35407, -760, -1455, -793, 236180, 248290, 299250
35427, -828, -1620, -828, 205870, 273980, 253890
35447, -795, -1572, -757, 171500, 236950, 247520
35467, -700, -1378, -668, 127610, 124600, 299670
35487, -629, -1220, -614, 93450, 21210, 347340
35507, -579, -1124, -583, 66850, -6580, 341110
35527, -551, -1067, -543, 42070, 33460, 281470
35547, -545, -1046, -510, 31080, 80990, 207900
35567, -554, -1072, -499, 32900, 80220, 161280
35587, -589, -1132, -512, 30310, 27860, 154140
35607, -603, -1157, -529, 350, -43960, 169820
35627, -610, -1176, -596, -58660, -106470, 185780
35647, -578, -1099, -573, -96670, -128100, 164640
35667, -492, -923, -447, -69020, -104860, 77700
35687, -409, -734, -318, -25620, -110950, 6930
35707, -367, -633, -275, -28560, -160930, -3850
35727, -344, -558, -255, -74970, -220360, 19600
35747, -334, -525, -269, -122010, -264810, 37800
35767, -325, -502, -274, -140630, -291340, 33880
35787, -302, -461, -252, -126980, -290220, -9590
35807, -273, -413, -221, -110880, -261100, -80220
35827, -255, -376, -188, -110040, -229250, -140210
35847, -241, -348, -168, -122780, -214130, -166880
35867, -249, -361, -180, -154000, -210630, -167230
35887, -269, -410, -214, -197470, -205520, -161490
35907, -299, -481, -251, -227570, -193690, -167720
35927, -336, -564, -284, -241850, -174090, -188860
35947, -383, -673, -335, -250250, -152880, -213290
35967, -451, -820, -403, -250320, -150430, -223300
35987, -562, -1076, -548, -245490, -177310, -208950
36007, -719, -1423, -727, -249130, -218680, -179970
36027, -839, -1654, -867, -280140, -240590, -154070
36047, -754, -1447, -796, -340690, -252700, -126280
36067, -578, -1114, -619, -359240, -290150, -105630
36087, -491, -904, -478, -274680, -357420, -86240
36107, -450, -856, -490, -249410, -388080, -47460
36127, -502, -956, -537, -290010, -374150, -13860
36147, -594, -1178, -665, -317170, -338870, 15330
36167, -742, -1506, -844, -316470, -311220, 27790
36187, -839, -1711, -901, -267400, -294000, 23030
36207, -836, -1705, -920, -194950, -300370, 8680
36227, -716, -1452, -786, -161700, -341320, 23800
36247, -595, -1201, -643, -123270, -376320, 36330
36267, -508, -1028, -550, -90860, -389620, 45850
36287, -469, -946, -503, -85540, -374500, 50960
36307, -465, -961, -531, -86590, -353500, 66710
36327, -483, -1020, -569, -80080, -327670, 75740
36347, -495, -1062, -571, -53130, -270550, 52010
36367, -494, -1076, -560, -13510, -203140, 13580
36387, -481, -1041, -530, 12530, -159460, 1190
36407, -447, -974, -507, 21420, -143010, 23660
36427, -404, -876, -462, 31290, -145950, 61460
36447, -348, -760, -406, 56560, -138740, 88480
36467, -301, -656, -349, 78680, -97580, 92400
36487, -269, -572, -308, 88340, -35210, 90090
36507, -252, -521, -289, 89390, 27650, 96250
36527, -245, -481, -277, 86870, 90860, 107380
36547, -239, -446, -265, 93520, 154630, 114380
36567, -241, -413, -258, 115570, 210630, 119630
36587, -249, -398, -257, 144410, 259490, 125790
36607, -265, -401, -269, 167370, 308420, 132230
36627, -293, -427, -294, 181160, 358330, 138040
36647, -327, -468, -332, 193130, 406280, 141750
36667, -371, -524, -377, 213990, 449120, 140770
36687, -413, -587, -417, 250390, 485030, 133700
36707, -470, -701, -478, 299110, 510020, 124950
36727, -550, -878, -566, 339640, 518980, 127400
36747, -634, -1087, -642, 358540, 518630, 141260
36767, -720, -1278, -731, 359590, 501340, 169820
36787, -703, -1285, -734, 341390, 451080, 217490
36807, -618, -1129, -647, 323610, 384370, 257740
36827, -538, -971, -557, 328930, 327390, 274890
36847, -488, -877, -488, 335300, 291200, 279300
36867, -488, -895, -485, 336210, 263060, 286930
36887, -555, -1037, -566, 317800, 234010, 308140
36907, -662, -1265, -688, 271460, 221620, 327600
36927, -784, -1520, -803, 224490, 229950, 325570
36947, -836, -1649, -827, 190260, 247800, 298550
36967, -810, -1598, -784, 162470, 240800, 275240
36987, -712, -1397, -699, 65170, 103600, 322000
37007, -628, -1222, -615, 42140, 49700, 325290
37027, -566, -1094, -550, 28980, 40740, 295890
37047, -533, -1020, -504, 9940, 61320, 248220
37067, -533, -1019, -490, -10780, 76370, 204050
37087, -567, -1085, -517, -24360, 62650, 174090
37107, -567, -1098, -510, -26810, 19180, 156380
37127, -604, -1141, -536, -45500, -35420, 150080
37147, -573, -1106, -549, -83160, -88340, 146720
37167, -546, -1029, -510, -80850, -126770, 119070
37187, -479, -895, -438, -77630, -139160, 71400
37207, -416, -749, -348, -81410, -130620, 12530
37227, -370, -628, -274, -92610, -154630, -13020
37247, -353, -568, -265, -111160, -209020, -4620
37267, -343, -529, -265, -131180, -268520, 7560
37287, -315, -480, -255, -135590, -302400, -5950
37307, -298, -447, -239, -136360, -310590, -36750
37327, -283, -427, -236, -148680, -290710, -80150
37347, -278, -409, -221, -165270, -255780, -130270
37367, -268, -380, -198, -179060, -222320, -178080
37387, -263, -367, -184, -187110, -210140, -206500
37407, -280, -405, -207, -196210, -220850, -211680
37427, -312, -496, -264, -213920, -230720, -210070
37447, -348, -584, -301, -235760, -217630, -222670
37467, -392, -685, -339, -259490, -190680, -240800
37487, -480, -873, -441, -285670, -185640, -235340
37507, -617, -1163, -609, -307020, -215950, -202650
37527, -763, -1475, -796, -318010, -260190, -167650
37547, -796, -1556, -840, -313810, -298970, -148260
37567, -682, -1311, -707, -318220, -312760, -145180
37587, -579, -1074, -595, -334600, -334320, -121660
37607, -515, -942, -537, -327880, -381640, -70350
37627, -502, -936, -544, -310730, -409220, -29540
37647, -531, -1032, -585, -297360, -398020, -9310
37667, -592, -1173, -651, -281330, -362880, -6860
37687, -673, -1346, -734, -268030, -331520, -2940
37707, -769, -1543, -844, -247030, -325080, 8890
37727, -815, -1647, -908, -204400, -352730, 28210
37747, -737, -1503, -817, -144270, -385560, 34370
37767, -626, -1274, -685, -90510, -391580, 21560
37787, -539, -1098, -589, -77140, -378280, 16450
37807, -496, -1007, -547, -80920, -364000, 27440
37827, -471, -974, -538, -72660, -349860, 41440
37847, -459, -966, -533, -45780, -323120, 40740
37867, -448, -965, -518, -12390, -275800, 22400
37887, -441, -960, -505, 13580, -219660, 3780
37907, -433, -946, -489, 25620, -173880, 2870
37927, -417, -914, -477, 31010, -145250, 22610
37947, -393, -866, -458, 36400, -122990, 49000
37967, -363, -789, -420, 44940, -89040, 66150
37987, -322, -700, -373, 60200, -39690, 69930
38007, -287, -614, -331, 80010, 11970, 73080
38027, -260, -540, -293, 99960, 59080, 83370
38047, -243, -483, -273, 115150, 105140, 99680
38067, -238, -443, -263, 125090, 155120, 116620
38087, -241, -411, -261, 132510, 210980, 130410
38107, -254, -400, -265, 140140, 272160, 137900
38127, -271, -395, -270, 151830, 334460, 138600
38147, -293, -406, -285, 171570, 391020, 134540
38167, -326, -447, -323, 197680, 436100, 130900
38187, -371, -510, -372, 227430, 472080, 127050
38207, -421, -598, -432, 264110, 505190, 118300
38227, -489, -732, -497, 309190, 531020, 110180
38247, -588, -955, -591, 349160, 539980, 117740
38267, -713, -1243, -716, 359170, 530600, 145600
38287, -789, -1434, -813, 336630, 501270, 184100
38307, -708, -1305, -745, 313110, 445900, 217910
38327, -594, -1074, -606, 324240, 376670, 234920
38347, -508, -914, -507, 349790, 316820, 245420
38367, -477, -864, -475, 344890, 275030, 259700
38387, -498, -922, -507, 321300, 238980, 283150
38407, -568, -1072, -596, 295260, 211260, 304430
38427, -680, -1300, -704, 268590, 208460, 305270
38447, -792, -1546, -796, 240800, 229320, 280420
38467, -821, -1633, -794, 201880, 249620, 247660
38487, -756, -1499, -731, 153930, 216860, 245490
38507, -657, -1287, -642, 111440, 110880, 292320
38527, -561, -1090, -551, 83720, 20020, 325430
38547, -514, -990, -501, 63980, -3920, 310940
38567, -500, -957, -467, 42910, 18410, 264810
38587, -516, -995, -474, 29610, 43890, 213990
38607, -566, -1084, -508, 24430, 44800, 176470
38627, -594, -1149, -527, 17920, 18550, 155680
38647, -650, -1262, -636, -2240, -24990, 145950
38667, -606, -1172, -585, -52640, -75460, 150360
38687, -524, -1004, -487, -57960, -115570, 124880
38707, -450, -836, -383, -20510, -142590, 73220
38727, -390, -701, -324, -25830, -161630, 12810
38747, -354, -587, -267, -115850, -184170, 10010
38767, -341, -540, -272, -129500, -233800, 18060
38787, -318, -491, -258, -112770, -276500, 6020
38807, -284, -427, -223, -90230, -285810, -38290
38827, -263, -396, -208, -95410, -271250, -81200
38847, -257, -386, -199, -121100, -249270, -109130
38867, -263, -400, -210, -159250, -218400, -132650
38887, -268, -413, -218, -193690, -182000, -163520
38907, -279, -432, -215, -201040, -160510, -192290
38927, -299, -477, -230, -194740, -160090, -207550
38947, -336, -565, -278, -200760, -167020, -212170
38967, -385, -682, -324, -217070, -173040, -210700
38987, -469, -864, -431, -249340, -184730, -192640
39007, -576, -1098, -582, -284200, -206500, -165760
39027, -673, -1313, -699, -281680, -235480, -149170
39047, -697, -1380, -708, -268310, -245910, -153720
39067, -667, -1300, -680, -297150, -247800, -146300
39087, -619, -1171, -648, -335020, -285880, -96460
39107, -553, -1056, -598, -327180, -338030, -49490
39127, -503, -986, -547, -290500, -346640, -37660
39147, -513, -1015, -547, -269010, -321860, -37800
39167, -575, -1152, -625, -274190, -297920, -18270
39187, -687, -1381, -750, -272580, -299880, 17570
39207, -762, -1558, -851, -244790, -306670, 38500
39227, -760, -1550, -829, -210630, -304710, 36190
39247, -673, -1369, -736, -168770, -316330, 38920
39267, -577, -1170, -624, -114870, -349790, 53130
39287, -501, -1034, -553, -84840, -355950, 60130
39307, -479, -995, -532, -83020, -329490, 63840
39327, -489, -1026, -552, -92260, -289660, 70980
39347, -513, -1085, -585, -83230, -254030, 74550
39367, -516, -1112, -593, -49140, -220080, 65030
39387, -506, -1101, -574, -11340, -181230, 49210
39407, -476, -1038, -538, 7000, -143850, 47390
39427, -438, -950, -491, 18480, -117530, 61250
39447, -391, -846, -441, 36330, -100590, 81130
39467, -341, -737, -386, 58380, -78750, 96530
39487, -299, -641, -340, 75950, -40810, 105770
39507, -270, -568, -308, 81130, 12460, 113400
39527, -256, -517, -290, 80430, 73360, 121590
39547, -251, -477, -277, 87570, 132440, 128590
39567, -245, -446, -266, 107870, 186270, 132580
39587, -249, -420, -264, 136290, 235550, 134330
39607, -255, -406, -261, 164360, 282170, 136220
39627, -272, -409, -274, 186060, 327740, 140140
39647, -302, -442, -304, 200480, 372960, 145600
39667, -344, -497, -349, 213430, 417620, 149240
39687, -390, -564, -400, 234640, 459130, 146230
39707, -434, -641, -445, 271320, 490840, 136990
39727, -477, -738, -485, 319970, 503300, 132020
39747, -528, -876, -536, 360850, 493150, 145320
39767, -607, -1054, -614, 367640, 467040, 183610
39787, -670, -1185, -682, 334110, 439250, 231210
39807, -657, -1180, -673, 296380, 412230, 261380
39827, -595, -1082, -599, 292950, 368060, 275100
39847, -537, -980, -542, 312760, 307510, 290080
39867, -523, -960, -527, 316610, 258020, 308840
39887, -545, -1014, -547, 290570, 234920, 323820
39907, -606, -1142, -610, 250600, 230230, 331240
39927, -692, -1323, -698, 203630, 236390, 331590
39947, -772, -1495, -772, 154980, 244720, 321930
39967, -794, -1563, -781, 119980, 239120, 304990
39987, -764, -1506, -742, 98840, 197750, 299740
40007, -707, -1383, -691, 74690, 124880, 317800
40027, -641, -1244, -632, 36960, 73360, 325360
40047, -589, -1135, -560, -2730, 71610, 295820
40067, -558, -1074, -515, -29890, 90370, 245420
40087, -565, -1085, -510, -39620, 87360, 203140
40107, -582, -1125, -539, -43330, 48860, 185220
40127, -595, -1153, -560, -50540, -5460, 178220
40147, -591, -1139, -555, -64680, -44520, 161560
40167, -555, -1051, -502, -84420, -61950, 128170
40187, -500, -930, -435, -101780, -81830, 92680
40207, -483, -879, -455, -124320, -117950, 72030
40227, -426, -737, -357, -145040, -161630, 63770
40247, -360, -602, -278, -109760, -189630, 17290
40267, -330, -520, -238, -82460, -218750, -26950
40287, -318, -486, -253, -95480, -261170, -33950
40307, -304, -452, -240, -126630, -297990, -29610
40327, -292, -424, -231, -151970, -309820, -43120
40347, -294, -426, -243, -168770, -308350, -66290
40367, -291, -418, -238, -184030, -301070, -91840
40387, -276, -393, -214, -187740, -282170, -134050
40407, -279, -397, -208, -191520, -247030, -190610
40427, -293, -424, -220, -207690, -219240, -230090
40447, -311, -458, -234, -216860, -221830, -238560
40467, -336, -534, -283, -216650, -240030, -236530
40487, -389, -650, -350, -254030, -246050, -236180
40507, -469, -853, -438, -286580, -232120, -229040
40527, -597, -1128, -593, -328510, -227290, -208670
40547, -759, -1457, -785, -344610, -263200, -171360
40567, -830, -1610, -875, -330400, -324800, -133280
40587, -771, -1484, -830, -331590, -366030, -106400
40607, -623, -1192, -670, -337960, -366870, -103460
40627, -523, -979, -553, -316750, -373170, -91280
40647, -477, -875, -492, -283430, -399700, -55440
40667, -482, -884, -500, -260540, -425740, -6860
40687, -542, -1028, -590, -253260, -435120, 34790
40707, -680, -1346, -766, -248430, -414820, 52360
40727, -845, -1723, -960, -233240, -367500, 33810
40747, -925, -1894, -1024, -196770, -325010, -6230
40767, -796, -1619, -868, -137970, -338940, -25830
40787, -640, -1279, -696, -70630, -404390, -7420
40807, -532, -1059, -584, -19040, -455000, 17010
40827, -460, -934, -519, -1190, -449820, 23380
40847, -433, -892, -496, -11060, -401380, 17430
40867, -437, -921, -508, -32550, -333620, 9520
40887, -467, -994, -547, -43470, -263130, -3500
40907, -490, -1052, -570, -26740, -204610, -19600
40927, -482, -1047, -558, 15540, -166950, -31360
40947, -438, -957, -502, 65310, -150220, -27860
40967, -378, -834, -431, 100870, -141400, -7700
40987, -323, -714, -370, 110670, -123340, 21840
41007, -275, -611, -320, 100240, -86030, 51170
41027, -247, -534, -289, 83790, -30940, 75320
41047, -229, -479, -272, 74060, 33600, 93380
41067, -221, -439, -259, 77770, 100730, 105630
41087, -220, -410, -251, 95200, 166740, 112770
41107, -225, -389, -249, 121520, 230160, 116620
41127, -238, -377, -251, 150220, 291060, 119490
41147, -258, -377, -259, 175980, 348950, 123200
41167, -282, -396, -281, 197610, 401380, 129850
41187, -321, -442, -319, 214410, 447790, 138740
41207, -376, -517, -372, 226940, 493430, 144480
41227, -448, -634, -450, 239540, 540820, 141050
41247, -534, -785, -542, 262430, 582610, 128100
41267, -635, -992, -641, 302540, 605290, 113610
41287, -714, -1221, -715, 349090, 592340, 114520
41307, -763, -1384, -769, 373590, 533610, 149310
41327, -737, -1354, -773, 351610, 442330, 215810
41347, -656, -1182, -696, 321440, 370020, 256340
41367, -558, -984, -585, 333130, 335370, 245630
41387, -493, -875, -499, 371840, 309190, 219730
41407, -484, -889, -482, 396690, 271040, 220990
41427, -550, -1042, -558, 371210, 231140, 254380
41447, -675, -1297, -701, 299950, 215740, 288610
41467, -807, -1562, -835, 225960, 225190, 293510
41487, -824, -1630, -826, 181650, 237510, 263200
41507, -743, -1480, -716, 177240, 196840, 240450
41527, -652, -1303, -636, 171290, 93170, 265510
41547, -603, -1195, -597, 143360, -3150, 301350
41567, -579, -1142, -582, 105910, -33180, 302610
41587, -565, -1104, -549, 65310, -2240, 257810
41607, -560, -1089, -523, 36610, 38010, 197750
41627, -569, -1104, -518, 29260, 33320, 156800
41647, -576, -1119, -523, 35000, -21210, 145320
41667, -577, -1121, -534, 33110, -89600, 147280
41687, -555, -1073, -523, 5880, -138600, 144550
41707, -511, -972, -476, -30660, -158760, 124040
41727, -456, -845, -409, -53410, -162610, 87290
41747, -402, -721, -343, -61040, -166600, 45850
41767, -357, -606, -277, -62510, -179200, 10710
41787, -334, -547, -263, -67340, -205520, -9450
41807, -318, -503, -258, -77910, -245490, -12670
41827, -290, -445, -228, -82390, -272370, -25830
41847, -268, -403, -204, -86730, -269500, -62440
41867, -269, -402, -205, -102270, -256200, -97440
41887, -272, -416, -214, -124250, -251440, -113050
41907, -280, -439, -226, -146720, -246190, -123410
41927, -291, -478, -250, -174020, -229880, -138040
41947, -310, -526, -274, -202720, -205660, -155330
41967, -333, -580, -289, -218260, -180320, -174790
41987, -366, -661, -317, -224840, -154350, -196350
42007, -433, -796, -385, -240660, -139510, -204960
42027, -533, -1003, -518, -259700, -163940, -179060
42047, -613, -1185, -635, -272510, -225050, -125370
42067, -657, -1293, -701, -279370, -278180, -81830
42087, -646, -1276, -671, -289800, -282310, -73290
42107, -608, -1196, -638, -298200, -259910, -83090
42127, -574, -1116, -605, -302610, -267890, -66220
42147, -545, -1066, -583, -291970, -303310, -28000
42167, -557, -1106, -605, -273910, -325500, 2730
42187, -613, -1228, -662, -253680, -327390, 20160
42207, -690, -1402, -754, -222810, -327040, 34650
42227, -763, -1558, -831, -198170, -327040, 57400
42247, -787, -1608, -882, -217700, -292810, 57960
42267, -717, -1472, -796, -173600, -301420, 51380
42287, -628, -1294, -684, -77140, -340900, 48090
42307, -561, -1163, -608, -20580, -368340, 56350
42327, -524, -1101, -584, -30800, -353360, 70910
42347, -506, -1067, -574, -68180, -298620, 71470
42367, -498, -1051, -562, -78400, -240800, 62370
42387, -487, -1038, -555, -41720, -215180, 57260
42407, -474, -1021, -544, 11200, -203490, 56210
42427, -451, -990, -526, 48370, -179410, 55720
42447, -422, -931, -490, 70280, -139860, 56000
42467, -378, -830, -426, 78750, -91910, 60410
42487, -343, -744, -379, 72730, -48370, 75810
42507, -315, -676, -353, 62580, -14630, 103320
42527, -296, -628, -341, 57750, 22820, 129150
42547, -283, -582, -331, 66010, 72870, 142380
42567, -272, -534, -312, 92610, 129500, 142940
42587, -261, -482, -290, 130060, 185570, 139020
42607, -252, -439, -273, 163590, 239190, 137550
42627, -253, -408, -263, 185920, 288540, 143570
42647, -260, -396, -267, 199570, 332430, 156520
42667, -281, -401, -286, 208740, 376530, 168700
42687, -319, -425, -319, 218750, 427280, 169540
42707, -349, -450, -346, 240240, 478170, 156240
42727, -375, -480, -375, 280840, 514850, 138670
42747, -402, -538, -408, 332080, 530670, 132440
42767, -448, -649, -457, 372120, 530460, 145880
42787, -520, -818, -516, 385350, 522060, 178710
42807, -626, -1060, -621, 368690, 498610, 230300
42827, -735, -1301, -751, 333340, 450870, 289030
42847, -764, -1398, -816, 312200, 393610, 321790
42867, -696, -1274, -732, 318990, 357070, 314230
42887, -598, -1090, -582, 330260, 335720, 298620
42907, -538, -981, -504, 308840, 293090, 319200
42927, -556, -1016, -543, 244020, 237300, 372050
42947, -627, -1162, -647, 169540, 211890, 406350
42967, -715, -1348, -739, 129150, 231770, 384930
42987, -781, -1511, -769, 131390, 268800, 321930
43007, -797, -1562, -753, 132160, 266210, 280700
43027, -761, -1487, -735, 82600, 209720, 296870
43047, -701, -1356, -687, 8680, 142660, 325640
43067, -649, -1256, -629, -35210, 112070, 313740
43087, -629, -1207, -597, -57960, 112840, 270270
43107, -606, -1164, -567, -76300, 113260, 223160
43127, -590, -1135, -543, -74830, 84840, 187320
43147, -551, -1069, -490, -57260, 34160, 161910
43167, -569, -1077, -500, -58590, -14770, 143640
43187, -572, -1092, -558, -128940, -39480, 137270
43207, -550, -1018, -495, -166320, -65870, 117040
43227, -484, -892, -421, -134470, -86310, 60130
43247, -442, -785, -357, -98700, -130410, 15960
43267, -403, -695, -324, -104440, -183890, 4760
43287, -390, -638, -318, -138950, -232330, 8470
43307, -376, -594, -315, -177170, -264250, 6090
43327, -348, -526, -283, -182350, -290430, -15190
43347, -311, -450, -242, -163940, -303520, -60270
43367, -292, -406, -221, -159670, -304640, -108570
43387, -285, -380, -213, -169470, -308350, -138460
43407, -283, -376, -219, -189840, -312970, -155820
43427, -289, -379, -223, -212660, -312480, -174300
43447, -296, -399, -237, -223790, -309750, -197890
43467, -306, -431, -248, -227640, -301490, -227290
43487, -325, -480, -257, -234220, -278600, -265020
43507, -361, -575, -301, -253750, -248080, -296870
43527, -422, -707, -373, -283150, -239120, -297710
43547, -497, -862, -458, -303660, -265580, -265020
43567, -644, -1177, -663, -323610, -308070, -217000
43587, -786, -1478, -841, -348740, -351330, -167440
43607, -756, -1458, -803, -367080, -359240, -153090
43627, -673, -1249, -697, -365400, -339990, -176890
43647, -576, -1024, -576, -327670, -392910, -141540
43667, -537, -958, -569, -302050, -455700, -87780
43687, -561, -1027, -617, -310240, -485450, -37730
43707, -618, -1165, -683, -311360, -480480, -4970
43727, -659, -1289, -740, -288750, -450940, -3360
43747, -704, -1382, -746, -238630, -422940, -23660
43767, -784, -1550, -892, -190890, -414680, -33180
43787, -795, -1583, -908, -187320, -431130, -10990
43807, -686, -1376, -772, -135310, -458920, -4340
43827, -579, -1153, -630, -46410, -463610, -36960
43847, -524, -1033, -570, -7910, -450870, -59710
43867, -517, -1031, -600, -20650, -445270, -43120
43887, -512, -1048, -614, -45010, -435540, -16030
43907, -502, -1042, -583, -31640, -389130, -32340
43927, -488, -1030, -551, 9520, -312480, -82460
43947, -474, -1011, -532, 33180, -249130, -112910
43967, -448, -968, -521, 40320, -226660, -97300
43987, -413, -901, -488, 54670, -205100, -33180
44007, -356, -781, -421, 65380, -147140, -34370
44027, -301, -669, -351, 78120, -85540, -34090
44047, -264, -590, -310, 84350, -43610, -7840
44067, -241, -536, -295, 85750, -5810, 31430
44087, -231, -500, -285, 91280, 46550, 62300
44107, -224, -462, -271, 104300, 114380, 79520
44127, -221, -426, -257, 120120, 189070, 90650
44147, -224, -393, -244, 135520, 257950, 105070
44167, -230, -372, -241, 148680, 314720, 127050
44187, -247, -371, -255, 158620, 362810, 154490
44207, -286, -404, -298, 164220, 413490, 177520
44227, -342, -476, -356, 169260, 476210, 183470
44247, -410, -561, -424, 185430, 548450, 165900
44267, -485, -665, -486, 221900, 616420, 132580
44287, -566, -817, -560, 270900, 659750, 105210
44307, -664, -1048, -651, 312760, 663320, 107030
44327, -777, -1323, -774, 330680, 620760, 143710
44347, -815, -1442, -845, 325010, 549570, 189700
44367, -740, -1304, -783, 329910, 482860, 207900
44387, -634, -1084, -666, 361970, 438620, 195020
44407, -542, -914, -552, 400540, 407120, 176960
44427, -499, -858, -500, 425320, 357770, 186970
44447, -525, -949, -538, 417340, 298060, 226800
44467, -623, -1149, -647, 373940, 265230, 264040
44487, -753, -1416, -784, 314300, 272230, 267960
44507, -818, -1581, -828, 270200, 291760, 236880
44527, -776, -1540, -758, 251580, 261940, 216510
44547, -690, -1372, -671, 227220, 153020, 255500
44567, -619, -1223, -613, 191380, 42770, 305130
44587, -582, -1146, -590, 152950, -2170, 312900
44607, -565, -1103, -566, 117110, 16240, 273420
44627, -561, -1087, -538, 93660, 56140, 210630
44647, -565, -1102, -524, 87220, 62440, 161770
44667, -573, -1114, -507, 91490, 19460, 142870
44687, -563, -1098, -503, 76440, -49560, 150500
44707, -567, -1102, -557, 19390, -113540, 171150
44727, -532, -1018, -520, -38290, -131810, 162610
44747, -466, -874, -428, -45360, -101360, 91770
44767, -398, -717, -317, -10640, -98000, 21490
44787, -350, -611, -266, 13370, -144340, -2450
44807, -324, -541, -243, -8260, -206010, 12600
44827, -316, -522, -266, -57610, -246820, 32270
44847, -302, -489, -260, -93240, -263970, 33180
44867, -279, -447, -239, -94430, -252420, -3990
44887, -255, -407, -208, -91490, -221760, -60970
44907, -253, -395, -189, -99610, -188790, -107870
44927, -269, -435, -217, -129920, -164220, -127750
44947, -283, -446, -213, -165480, -152670, -132580
44967, -291, -471, -226, -175000, -153300, -141890
44987, -323, -559, -288, -188440, -160860, -149450
45007, -362, -650, -325, -202370, -159250, -161700
45027, -419, -775, -372, -197820, -138390, -190260
45047, -495, -940, -442, -204540, -127610, -202440
45067, -591, -1143, -576, -229950, -160790, -171010
45087, -681, -1329, -711, -274400, -219660, -111930
45107, -726, -1430, -789, -315980, -257390, -68810
45127, -663, -1308, -696, -327810, -256270, -68740
45147, -571, -1125, -589, -295610, -242970, -99190
45167, -509, -979, -511, -251930, -275800, -88130
45187, -480, -936, -511, -242480, -317030, -41720
45207, -515, -1010, -559, -270550, -329700, 7770
45227, -588, -1175, -647, -289870, -313950, 40740
45247, -702, -1429, -779, -282870, -290640, 52430
45267, -810, -1646, -884, -245420, -281330, 53690
45287, -812, -1689, -918, -196840, -286580, 48790
45307, -697, -1432, -742, -167090, -280000, 28350
45327, -589, -1201, -626, -124670, -287420, 21560
45347, -534, -1068, -566, -95900, -332220, 56070
45367, -486, -1000, -550, -81690, -367780, 96950
45387, -474, -991, -550, -77070, -362180, 115290
45407, -462, -992, -538, -75810, -299740, 97020
45427, -469, -1006, -524, -61530, -211470, 53550
45447, -470, -1019, -524, -31710, -148470, 23800
45467, -467, -1013, -519, -560, -131040, 29470
45487, -445, -975, -508, 23590, -136360, 61460
45507, -418, -910, -480, 39620, -136080, 95760
45527, -375, -809, -425, 47880, -106750, 113120
45547, -334, -713, -377, 57610, -56490, 112700
45567, -303, -631, -342, 69370, -4270, 110670
45587, -276, -561, -312, 77210, 49770, 111230
45607, -256, -495, -285, 85820, 108570, 110040
45627, -238, -434, -258, 104440, 164990, 109130
45647, -226, -384, -235, 131530, 210910, 115990
45667, -227, -353, -228, 155540, 250110, 132370
45687, -239, -349, -241, 167300, 288540, 154560
45707, -261, -358, -264, 170100, 329910, 174020
45727, -286, -367, -284, 179340, 375270, 180530
45747, -312, -389, -313, 260680, 451150, 153580
45767, -344, -432, -352, 321090, 471450, 137690
45787, -391, -526, -411, 372330, 488320, 129430
45807, -467, -689, -490, 404950, 506940, 131390
45827, -576, -942, -580, 417690, 515690, 151900
45847, -771, -1369, -741, 386750, 493990, 205870
45867, -941, -1772, -962, 297010, 441630, 270970
45887, -857, -1640, -911, 239680, 363860, 303730
45907, -653, -1226, -662, 261450, 289450, 303800
45927, -496, -931, -482, 295260, 214970, 309960
45947, -445, -828, -434, 284410, 156170, 341950
45967, -470, -881, -483, 232820, 143920, 364910
45987, -556, -1045, -581, 181860, 180250, 356650
46007, -699, -1335, -719, 150920, 234430, 314300
46027, -842, -1660, -827, 131320, 274540, 260610
46047, -911, -1817, -872, 98490, 249690, 247100
46067, -814, -1613, -791, 37450, 146160, 293090
46087, -680, -1324, -655, 6720, 38220, 328160
46107, -583, -1133, -577, -16940, 3850, 313390
46127, -535, -1024, -510, -48440, 34370, 256410
46147, -525, -999, -482, -67620, 67690, 194880
46167, -548, -1037, -480, -65240, 55580, 153720
46187, -549, -1042, -462, -47880, -6650, 136920
46207, -611, -1178, -603, -81200, -69860, 141190
46227, -617, -1184, -602, -112630, -120680, 136430
46247, -543, -1049, -507, -74760, -134400, 78050
46267, -491, -908, -408, -53200, -155820, 26530
46287, -435, -784, -371, -104650, -180810, 19250
46307, -419, -691, -333, -166950, -218610, 29890
46327, -395, -635, -347, -201600, -259350, 35560
46347, -372, -571, -312, -172620, -307510, 12040
46367, -314, -469, -257, -113820, -329420, -47110
46387, -272, -383, -202, -85470, -326970, -111160
46407, -250, -333, -178, -105350, -318220, -139790
46427, -252, -330, -185, -158550, -311640, -137830
46447, -256, -339, -196, -220500, -297710, -133350
46467, -268, -366, -216, -266980, -278180, -143080
46487, -288, -416, -245, -284060, -264320, -161420
46507, -312, -474, -270, -273980, -249970, -191800
46527, -337, -531, -280, -254800, -223020, -238280
46547, -371, -630, -322, -240310, -199500, -276500
46567, -430, -772, -381, -230510, -209440, -275870
46587, -529, -991, -485, -250600, -232820, -242060
46607, -708, -1330, -713, -326900, -252280, -186480
46627, -864, -1636, -939, -394870, -318710, -99750
46647, -771, -1488, -860, -367360, -406210, -44520
46667, -586, -1149, -622, -295260, -419790, -69860
46687, -512, -967, -521, -272090, -367990, -108990
46707, -516, -948, -541, -320040, -339290, -86310
46727, -553, -1012, -580, -317940, -389200, -14910
46747, -584, -1120, -642, -246540, -454580, 40950
46767, -643, -1280, -716, -188230, -466200, 48370
46787, -749, -1495, -812, -167440, -424620, 27580
46807, -833, -1691, -945, -181930, -378910, 13930
46827, -798, -1623, -886, -172620, -369110, 6440
46847, -681, -1376, -761, -117250, -372050, -13650
46867, -583, -1172, -653, -61040, -403130, -10990
46887, -513, -1045, -586, 4900, -439180, -3010
46907, -460, -959, -532, 48090, -440510, -6790
46927, -445, -939, -500, 39830, -385980, -25130
46947, -474, -1003, -538, -6440, -305760, -34020
46967, -512, -1089, -601, -51100, -249900, -17780
46987, -513, -1100, -617, -43190, -222530, -3780
47007, -459, -998, -547, 21910, -194950, -19460
47027, -391, -857, -450, 99750, -157780, -46970
47047, -327, -727, -367, 138950, -120400, -49840
47067, -279, -630, -320, 130480, -88130, -18970
47087, -256, -566, -301, 98490, -60200, 34510
47107, -241, -515, -290, 70000, -19530, 81270
47127, -233, -476, -279, 56770, 42490, 105140
47147, -225, -438, -267, 63280, 115080, 110320
47167, -225, -405, -258, 88690, 185710, 108990
47187, -228, -377, -251, 126490, 246890, 111300
47207, -240, -368, -256, 166110, 299460, 120680
47227, -271, -390, -285, 195860, 348740, 136850
47247, -320, -444, -331, 208040, 404250, 152040
47267, -382, -520, -383, 209510, 472990, 153580
47287, -459, -638, -459, 217070, 545300, 138880
47307, -546, -792, -543, 239750, 602000, 119770
47327, -642, -1001, -642, 271250, 635810, 107380
47347, -713, -1203, -712, 305270, 640150, 107030
47367, -746, -1328, -747, 341670, 599060, 129150
47387, -714, -1292, -751, 354970, 512120, 184660
47407, -658, -1158, -703, 334530, 423430, 240940
47427, -584, -1005, -619, 327040, 379470, 247870
47447, -522, -910, -539, 368620, 362670, 212450
47467, -514, -929, -515, 425600, 327810, 193200
47487, -569, -1059, -581, 357840, 260960, 258370
47507, -690, -1301, -705, 260400, 256760, 287770
47527, -764, -1470, -786, 205450, 251440, 280980
47547, -760, -1495, -766, 210910, 210630, 259420
47567, -699, -1384, -679, 224140, 129500, 261240
47587, -631, -1253, -612, 199640, 49000, 283080
47607, -592, -1172, -588, 150430, 560, 298480
47627, -576, -1130, -571, 103880, 280, 280350
47647, -576, -1123, -560, 65450, 30730, 233030
47667, -589, -1144, -550, 42280, 45430, 183190
47687, -604, -1175, -556, 42910, 9730, 155470
47707, -618, -1192, -539, 50400, -66010, 153440
47727, -584, -1134, -538, 36120, -146860, 159180
47747, -576, -1118, -591, -21070, -183750, 159390
47767, -505, -955, -476, -48650, -150780, 94780
47787, -429, -791, -369, -43470, -108850, 9800
47807, -379, -670, -297, -41860, -129920, -26390
47827, -341, -575, -259, -44870, -192920, -16170
47847, -317, -497, -228, -59220, -256060, 3780
47867, -305, -471, -241, -87780, -296730, 14000
47887, -296, -459, -253, -109760, -311080, 3850
47907, -270, -419, -235, -114870, -289450, -42490
47927, -244, -377, -195, -120680, -242830, -103880
47947, -241, -365, -182, -139790, -203000, -144830
47967, -248, -378, -189, -162470, -187390, -153580
47987, -268, -420, -212, -188090, -181860, -152670
48007, -283, -464, -236, -216930, -172200, -155820
48027, -312, -535, -274, -234920, -162610, -160720
48047, -355, -634, -315, -251230, -152250, -164570
48067, -440, -821, -417, -262640, -143920, -168140
48087, -548, -1061, -536, -248640, -172410, -153650
48107, -654, -1293, -643, -234010, -216020, -125930
48127, -742, -1477, -783, -275450, -234640, -100870
48147, -720, -1435, -760, -325640, -259280, -63140
48167, -620, -1221, -673, -315840, -287840, -46410
48187, -534, -1043, -563, -280910, -313110, -38500
48207, -480, -928, -493, -247590, -326900, -25130
48227, -479, -932, -512, -242900, -330330, 350
48247, -520, -1028, -558, -244300, -327460, 27440
48267, -610, -1228, -662, -226030, -319200, 45780
48287, -741, -1517, -820, -217280, -303100, 54950
48307, -855, -1748, -941, -205870, -289240, 57680
48327, -811, -1680, -914, -183820, -284550, 48020
48347, -687, -1413, -743, -125160, -300720, 29960
48367, -562, -1159, -606, -53550, -335790, 30520
48387, -501, -1030, -542, -25480, -364420, 51590
48407, -466, -975, -523, -37240, -354480, 71890
48427, -464, -982, -536, -54880, -315490, 80080
48447, -473, -1011, -548, -60270, -254100, 69720
48467, -478, -1031, -549, -37590, -192150, 46270
48487, -473, -1025, -540, 5530, -150850, 28420
48507, -444, -972, -503, 46620, -127960, 27580
48527, -404, -887, -454, 74830, -110390, 41440
48547, -363, -795, -410, 82670, -90440, 66150
48567, -324, -700, -365, 76090, -59500, 91280
48587, -287, -607, -327, 70210, -16730, 110180
48607, -266, -543, -304, 72030, 31500, 124110
48627, -250, -492, -287, 82880, 85470, 131810
48647, -242, -444, -270, 101780, 145460, 131880
48667, -238, -408, -259, 127330, 207060, 127470
48687, -241, -386, -254, 155050, 263130, 126980
48707, -259, -388, -264, 178500, 313810, 132930
48727, -287, -411, -292, 194040, 362880, 141540
48747, -324, -456, -333, 207410, 412230, 145110
48767, -367, -510, -371, 229460, 460320, 139650
48787, -415, -589, -417, 264040, 500500, 128730
48807, -491, -751, -500, 301840, 525840, 123480
48827, -590, -979, -602, 327250, 535360, 133560
48847, -705, -1241, -712, 334180, 527590, 159250
48867, -755, -1383, -775, 330330, 492800, 196000
48887, -685, -1270, -723, 324310, 421470, 239470
48907, -576, -1043, -602, 324590, 342720, 272580
48927, -486, -857, -494, 326340, 301490, 280630
48947, -425, -748, -422, 324590, 285460, 276150
48967, -417, -746, -409, 323330, 261380, 283920
48987, -478, -872, -481, 307230, 231700, 311920
49007, -609, -1140, -628, 264600, 220640, 339220
49027, -815, -1564, -836, 213290, 238280, 339780
49047, -910, -1806, -903, 176610, 268730, 307440
49067, -837, -1661, -806, 156590, 266700, 270130
49087, -706, -1372, -670, 124390, 191730, 284410
49107, -613, -1174, -587, 65240, 99610, 324450
49127, -567, -1085, -552, 18620, 45920, 335580
49147, -555, -1064, -538, -8540, 39830, 307510
49167, -566, -1090, -530, -23800, 60690, 250950
49187, -582, -1130, -533, -22050, 73010, 191870
49207, -604, -1173, -541, -12110, 51870, 148820
49227, -613, -1184, -556, -13370, 1820, 134540
49247, -591, -1125, -549, -98630, -99050, 131950
49267, -532, -993, -488, -123270, -129780, 107100
49287, -464, -841, -409, -115080, -158340, 69160
49307, -407, -707, -340, -101640, -189210, 34020
49327, -359, -595, -283, -99610, -214550, 3080
49347, -331, -525, -254, -114310, -238700, -17710
49367, -315, -477, -238, -130200, -265370, -31360
49387, -306, -446, -232, -138950, -291970, -46480
49407, -296, -423, -230, -142800, -312760, -67970
49427, -286, -408, -232, -143920, -321440, -95760
49447, -270, -389, -220, -149450, -310030, -130760
49467, -269, -396, -221, -170240, -275450, -170310
49487, -282, -419, -217, -208180, -232190, -203280
49507, -313, -484, -252, -248010, -200830, -222740
49527, -347, -557, -289, -268310, -196980, -228970
49547, -387, -640, -333, -261170, -213920, -230510
49567, -435, -758, -394, -250670, -234920, -230020
49587, -499, -906, -471, -255360, -246540, -228270
49607, -565, -1054, -545, -276640, -253120, -220080
49627, -630, -1190, -635, -310520, -283080, -183960
49647, -687, -1293, -716, -335790, -340410, -121590
49667, -686, -1299, -736, -340690, -383810, -75110
49687, -617, -1193, -679, -348040, -379540, -64680
49707, -572, -1091, -617, -340970, -354410, -70350
49727, -550, -1057, -593, -306600, -352590, -61530
49747, -554, -1094, -593, -253400, -376810, -37100
49767, -641, -1234, -655, -217420, -397110, 630
49787, -781, -1525, -899, -238210, -416850, 60620
49807, -779, -1582, -888, -220080, -416920, 61670
49827, -691, -1441, -763, -146580, -353780, -14630
49847, -649, -1294, -666, -114800, -331310, -35210
49867, -621, -1234, -686, -119000, -371420, 18480
49887, -588, -1196, -696, -83790, -433300, 65590
49907, -498, -1059, -589, -7490, -421540, 42630
49927, -464, -987, -510, 29470, -335020, -16030
49947, -460, -986, -518, -4060, -254870, -28420
49967, -479, -1026, -558, -26810, -239890, 9800
49987, -463, -1018, -571, -2240, -243670, 46410
50007, -426, -961, -527, 40110, -200550, 36470
50027, -384, -868, -458, 68740, -117740, 9100
50047, -345, -777, -409, 89180, -55860, 12320
50067, -310, -696, -367, 106120, -31990, 53690
50087, -283, -629, -347, 117250, -7140, 101080
50107, -271, -579, -337, 117880, 44380, 133350
50127, -261, -521, -322, 117040, 123480, 146090
50147, -256, -472, -301, 128240, 213220, 147070
50167, -261, -434, -294, 146580, 291480, 154140
