T [ms],AccX [mg],AccY [mg],AccZ [mg],GyroX [mdps],GyroY [mdps],GyroZ [mdps]
4480, 33, 436, 962, 6440, 3360, 630
4500, 51, 438, 951, 4480, 5110, 840
4520, 51, 432, 931, 2380, 6160, 910
4540, 30, 421, 914, 1540, 5460, 1610
4560, 21, 425, 913, 2800, 2450, 1400
4580, 10, 433, 956, 3990, 280, -280
4600, 41, 450, 967, 4550, -1610, -1750
4620, 61, 448, 936, 2660, -1470, -2450
4640, 50, 438, 904, -280, 1190, -2450
4660, 27, 437, 924, -1050, 140, -1750
4680, 17, 439, 957, 490, -2030, -1400
4700, 37, 447, 942, 980, -3080, -1750
4720, 52, 441, 922, -910, -2380, -1960
4740, 51, 436, 906, -2240, -140, -1960
4760, 33, 443, 934, -2520, 560, -2660
4780, 33, 445, 960, -1610, 700, -3430
4800, 37, 441, 954, -2380, -1120, -2520
4820, 52, 427, 928, -4060, -2380, -1890
4840, 42, 421, 898, -2450, -7280, -2590
4860, 42, 425, 897, -3990, -3080, -840
4880, 32, 425, 929, -2520, 770, -1890
4900, 33, 431, 933, -840, 1400, -3430
4920, 30, 431, 941, -630, 490, -4830
4940, 36, 428, 924, -910, -420, -5880
4960, 34, 421, 901, -1680, -1610, -7000
4980, 43, 416, 882, -1820, -2100, -7210
5000, -84, 313, 915, -210, -2240, -8330
5020, -6, 382, 901, 3710, -3220, -11620
5040, -23, 397, 940, 12110, -12950, -19950
5060, 78, 485, 1011, 14700, -20020, -29820
5080, 154, 540, 950, 24780, -38570, -38500
5100, 159, 502, 908, 23870, -50400, -37520
5120, 119, 432, 835, 18130, -38570, -26950
5140, 157, 477, 879, 17570, -36820, -16240
5160, 170, 528, 826, 24710, -49420, -12600
5180, 172, 517, 753, 33040, -44590, -9870
5200, 186, 492, 819, 40810, -42350, -9450
5220, 191, 557, 901, 61390, -52010, -2380
5240, -1345, 491, -395, 77490, -68740, 6230
5260, 274, 775, 898, 82880, -67270, 4760
5280, 214, 695, 1043, 148540, 2450, -16030
5300, 59, 622, 1054, 97300, 30730, 15540
5320, 62, 766, 919, 53270, 23380, 5110
5340, 99, 792, 793, 11550, 6580, -3850
5360, 284, 747, 768, -3010, 12950, -25550
5380, 174, 664, 843, 10920, 9730, -13860
5400, 135, 832, 822, 15050, -75180, 9660
5420, 358, 777, 876, 2450, -108500, -27930
5440, 159, 316, 845, 35280, -58590, -42980
5460, 359, 780, 947, 47950, -62230, -51730
5480, -111, 1049, 799, 37590, -52640, -73150
5500, 304, 723, 659, 67130, -57610, -13160
5520, 192, 770, 583, 90440, -40110, -28910
5540, 292, 705, 578, 103180, -24080, -51380
5560, 209, 780, 534, 123060, -7910, -56980
5580, 114, 741, 451, 150150, 3150, -78400
5600, -57, 787, 408, 169400, 8820, -99050
5620, 32, 915, 387, 173460, 1820, -106470
5640, 253, 676, 174, 168210, -18690, -85610
5660, 59, 611, 252, 152880, -46620, -55860
5680, 59, 553, 88, 160580, -9660, -79940
5700, 66, 749, 345, 135520, -6650, -100170
5720, 152, 766, 283, 141680, 11550, -143570
5740, -99, 659, 176, 130410, 2940, -148680
5760, -263, 814, 249, 105210, 12740, -134470
5780, -116, 905, 277, 76300, 7000, -108990
5800, -98, 920, 294, 68950, 11200, -100030
5820, -224, 922, 212, 55510, -7560, -118440
5840, -352, 828, 82, 41370, -22820, -122920
5860, -400, 831, 49, 28280, -21560, -115430
5880, -343, 759, 51, 23170, -11970, -123900
5900, -427, 692, -1, 21420, -10710, -139510
5920, -555, 646, -51, 17290, -22470, -144130
5940, -660, 814, -84, 12950, -31360, -149870
5960, -617, 870, -37, 15820, -24430, -182840
5980, -761, 652, -155, 33950, -2870, -232960
6000, -859, 651, -107, 33600, 4760, -248290
6020, -855, 745, -45, 27020, 7140, -209370
6040, -845, 739, -63, 26600, 6160, -191030
6060, -834, 619, -33, 39900, 11060, -187810
6080, -792, 502, 35, 40320, 20300, -193550
6100, -854, 567, 16, 33110, 18130, -198870
6120, -946, 452, -80, 38010, 7560, -190750
6140, -949, 329, -169, 47180, 5320, -191520
6160, -904, 259, -49, 38780, 7980, -166600
6180, -864, 278, 81, 24290, 13300, -140980
6200, -898, 231, -15, 26950, -770, -131040
6220, -996, 57, -194, 42840, -27020, -132510
6240, -947, -21, -200, 35910, -43680, -104650
6260, -963, 143, -34, 8470, -45360, -70280
6280, -963, 269, 59, -420, -27090, -72590
6300, -1064, 169, 12, 35630, -15190, -126070
6320, -1135, 152, -2, 57400, -21910, -162260
6340, -1225, 75, -18, 43960, -42840, -128870
6360, -1250, -96, -83, 34370, -52710, -70910
6380, -1265, -182, -199, 36470, -45640, -52430
6400, -1089, -193, -147, 28140, -32060, -61810
6420, -986, -155, 33, -910, -20650, -50470
6440, -963, 197, 324, -26530, -13510, -17990
6460, -1107, -102, 86, 1680, -17920, 5810
6480, -1282, -147, -131, 43610, -41510, -2940
6500, -1193, -31, -66, 30940, -56140, 33670
6520, -974, -154, 237, 1610, -42910, 58030
6540, -958, -211, 224, 12880, -2240, 13790
6560, -1101, -245, 110, 46690, 7770, -43120
6580, -1119, -166, 18, 42350, -9660, -71680
6600, -1092, -198, 68, 19390, -22540, -59640
6620, -992, -338, 153, 8610, -4270, -37240
6640, -980, -236, 270, 980, 8890, -36820
6660, -953, -101, 230, -5880, 6020, -38920
6680, -1023, -91, 132, -1680, -17640, -36610
6700, -1013, -110, 85, 4200, -28770, -18270
6720, -945, -213, 151, -1050, -31430, 1540
6740, -990, -308, 181, -12670, -29470, 20930
6760, -1086, -466, 112, -15120, -23940, 21980
6780, -1147, -551, -25, -14210, -25760, 15470
6800, -1086, -449, 20, -27230, -26880, 5040
6820, -936, -224, 207, -55440, -9100, 15190
6840, -920, -153, 263, -75040, 32620, 24780
6860, -986, -467, -134, -70140, 80360, -9310
6880, -743, -574, -477, 21070, 60620, -37590
6900, -387, -481, -293, 200900, -149730, -76300
6920, -237, -326, -170, 276710, -197960, -200340
6940, -218, -291, -84, 188790, -56140, -325010
6960, -251, -331, -37, 38150, 155750, -398510
6980, -232, -362, -28, -108710, 286650, -396900
7000, -293, -505, -121, -199570, 258720, -333760
7020, -528, -915, -419, -278740, 121240, -201670
7040, -912, -1672, -898, -328580, -77840, -32060
7060, -1414, -1998, -1367, -313600, -181370, 5740
7080, -989, -1866, -668, -158270, -142100, -183680
7100, -655, -1119, -304, 15960, -35630, -455980
7120, -660, -1047, -591, -192780, 210, -456470
7140, -898, -1445, -881, -496440, -263270, -176750
7160, -849, -1549, -819, -294210, -501550, -150780
7180, -839, -1540, -673, -373310, -235620, -362040
7200, -758, -1294, -732, -537740, -235620, -295610
7220, -606, -860, -494, -467320, -458850, -151060
7240, -436, -493, -337, -286230, -651700, -84000
7260, -266, -149, -179, -234990, -742070, -39200
7280, -233, -81, -186, -310660, -748230, 55930
7300, -175, 5, -170, -348950, -727650, 141540
7320, -144, 47, -137, -346850, -688240, 226030
7340, -101, 19, -165, -323960, -640360, 299250
7360, -66, 42, -135, -313250, -527730, 324240
7380, -77, -53, -183, -351120, -362530, 313530
7400, -311, -576, -448, -378980, -177940, 246190
7420, -839, -1264, -824, -370230, 147630, -7560
7440, -1998, -1998, -1543, -153510, 642530, -582680
7460, -898, -1511, -330, 430150, 986510, -1159830
7480, -347, -228, 282, 704620, 215250, -663950
7500, -656, -233, -207, -121800, -596190, 327950
7520, -573, -308, -364, -395080, -988470, 725340
7540, -398, -298, -344, -261450, -1009190, 843500
7560, -230, -340, -462, -187040, -695240, 751660
7580, -900, -1260, -1106, -307440, -42560, 414330
7600, -1998, -1998, -1996, -380730, 1067780, -441770
7620, -973, -1998, 574, 241850, 1962240, -1507100
7640, -1273, -1263, -909, 519330, 307090, -213220
7660, -452, -340, -302, -265510, -885920, 1077720
7680, -289, -77, -144, -271880, -461370, 725130
7700, -49, -13, -322, -321370, -197400, 633430
7720, -115, -11, -230, -359380, 65800, 565530
7740, -176, 7, -153, -368060, 391860, 465290
7760, -155, -2, -222, -373730, 523530, 408590
7780, -246, -62, -113, -410410, 609770, 374850
7800, -563, -530, -425, -418320, 651770, 305830
7820, -960, -466, -428, -248500, 605150, 75250
7840, -1375, -170, -843, 352310, 461930, -488390
7860, -929, 495, -704, 1073450, -39550, -1013110
7880, -83, 456, 9, 1300110, -442820, -1367100
7900, -146, -108, 333, 777700, -304360, -1185520
7920, -1998, -1998, -1997, -119910, -334810, -475440
7940, -1998, -1998, -1997, -1038940, -1166060, 807800
7960, -699, -388, 39, -432600, -819560, 329490
7980, 15, -4, -170, 119490, 54740, -931140
8000, -72, 152, 162, 81690, -248150, -690480
8020, -75, 258, 130, -24780, -293650, -318640
8040, -212, 195, 41, -115080, -556990, 44240
8060, -469, -78, -72, -141190, -793590, 448490
8080, -300, -98, -221, -84070, -974470, 779590
8100, -224, -108, -205, 11550, -1009820, 917490
8120, -151, -138, -166, 43610, -730100, 909790
8140, -86, -145, -194, 152040, -462770, 814310
8160, -8, -77, -286, 326130, -274260, 638260
8180, -119, 19, -302, 487690, -36750, 372470
8200, -238, 122, -300, 621460, 271180, 107380
8220, -291, 242, -294, 756630, 489790, -82320
8240, -367, 295, -334, 886270, 599620, -206850
8260, -268, 384, -312, 1008700, 629090, -269850
8280, -55, 538, -176, 1103270, 591290, -282520
8300, -314, 108, -67, 1108240, 562660, -198870
8320, -110, -516, -13, 1014090, 520170, 26810
8340, -1998, -1998, -1997, 879830, 160230, 429730
8360, -1793, -1959, -1463, 235060, 50330, 1041320
8380, -45, 160, 92, 129500, 795270, 77910
8400, -128, 278, 111, 675220, 894180, -538090
8420, -87, 258, 37, 441210, 739410, 17290
8440, -350, 48, -41, 255010, 543200, 428820
8460, -366, -24, -58, -51240, 521010, 668150
8480, -670, -716, -384, -222810, 436170, 700280
8500, -679, -1185, -958, -254170, 262570, 644910
8520, -1179, -1020, -916, -92120, 195720, 450380
8540, -186, 99, 38, 349650, 448560, -12950
8560, -74, -100, 43, 895860, 434420, -410270
8580, -81, -88, 9, 608790, 275800, -132720
8600, -331, -310, -183, 288960, 84350, 294070
8620, -732, -1096, -785, 43610, 102900, 527100
8640, -1998, -1998, -1997, -212660, 324520, 437780
8660, -910, -1998, -976, -343490, 844760, -36120
8680, -184, -191, 45, 703080, 532210, -553840
8700, 25, 43, -91, 757120, -501340, 54180
8720, -77, 172, -21, 11340, -296380, 210630
8740, -120, 230, -129, -207690, -194320, 485310
8760, -193, 135, -169, -292670, -135310, 718620
8780, -166, 88, -192, -452480, 36820, 779100
8800, -88, 25, -229, -530320, 133420, 753340
8820, -4, -33, -273, -559860, 198730, 676340
8840, -70, -51, -171, -579530, 296870, 524370
8860, -131, -106, -208, -579320, 460040, 359870
8880, -406, -277, -83, -541870, 499800, 255430
8900, -300, -114, 32, -471310, 520450, 78470
8920, -327, -19, 0, 15680, 205730, -534030
8940, -310, 12, -260, 325080, -238770, -586320
8960, -56, 182, -337, 477820, -418180, -656110
8980, -109, 147, -231, 359870, -126140, -816270
9000, -512, -87, -53, 273420, 340620, -898380
9020, -1218, -1476, -1106, 321580, 381360, -943670
9040, -1998, -1998, -1997, 653030, -127680, -717010
9060, -411, -499, -662, -932260, 16170, -64750
9080, -341, -261, -343, -786870, -527310, -118020
9100, -329, 0, -78, -125370, -794360, -152950
9120, -43, 193, -202, 47810, -966980, -117950
9140, 185, 266, -186, -78890, -893550, -64890
9160, 287, 451, -71, -182420, -630280, 32900
9180, 30, 314, -178, -371140, -345520, 245910
9200, -126, 210, -98, -472780, -261940, 531090
9220, -265, 131, -50, -357700, -274400, 757960
9240, -260, 103, -96, -361340, -271460, 848400
9260, -183, 23, -183, -413840, -211820, 830550
9280, -177, 195, -6, -353640, -155050, 805140
9300, -230, 142, -92, -259420, -154350, 861210
9320, -249, 42, -185, -290290, -101010, 903840
9340, -189, 91, -79, -350770, 107660, 828170
9360, -197, -10, -96, -324240, 181300, 740180
9380, -63, 49, -89, -251230, 170100, 678720
9400, 8, 60, -191, -170800, 195020, 584850
9420, 12, 76, -292, -186550, 396270, 481320
9440, -457, -367, -888, -253610, 709590, 377930
9460, -1998, -1636, -1559, -512540, 1477280, 58660
9480, -1998, -1645, -1997, -562940, 2225090, -788830
9500, -1178, 1070, 128, 653380, 2289070, -1789130
9520, -1998, -834, -1685, 1691830, 1604050, -986650
9540, -1998, -1998, -1997, -1023680, -406140, 1619520
9560, -1804, -721, -1240, -789950, -390320, 948850
9580, -589, -316, 279, 957740, 733040, -1141280
9600, -91, -131, 530, 1027950, 544670, -934710
9620, -1668, -620, -783, -206990, -36820, 170520
9640, -1605, -1440, -1252, -949130, -714630, 1269800
9660, -575, -830, -776, -669830, -802760, 1161720
9680, -480, -369, -272, -177100, -185430, 203700
9700, -372, -71, -78, 43960, 444920, -477050
9720, -184, 120, 13, 203910, 565880, -687050
9740, 1, 230, 127, 292740, 467180, -614810
9760, 54, 216, 114, 241010, 334250, -351120
9780, 9, 126, 43, 77140, 215670, -43050
9800, -149, -67, -54, -66640, 125580, 214550
9820, -393, -362, -156, -149240, 84140, 349720
9840, -450, -616, -328, -135590, 44730, 308910
9860, -283, -664, -268, 56140, -63770, 102970
9880, -494, -1205, -687, 166460, -91210, -29750
9900, -577, -1121, -651, 66640, -13860, 78120
9920, -575, -985, -555, 52290, 182140, 60200
9940, -1005, -1397, -740, 127190, 391440, -76370
9960, -1067, -1998, -541, 156660, 598710, -301980
9980, -1998, -1998, -1997, -72100, 304990, -3150
10000, -906, -1332, -504, -37030, -475300, 674730
10020, -227, -310, 19, 558390, 80150, -169400
10040, -52, -113, -130, 86520, 394240, -225330
10060, -130, 45, 80, -209580, 230930, 140560
10080, -64, 129, 9, -103740, 91630, 343000
10100, -54, 125, -152, -64470, -74550, 517440
10120, -88, 221, -142, -153580, -47740, 647430
10140, -151, 199, -205, -297780, 175000, 677670
10160, -253, 137, -169, -502250, 377790, 674030
10180, -238, 168, -132, -666330, 462070, 667940
10200, -291, 124, -115, -731990, 383810, 660030
10220, -442, -164, -200, -764820, 238840, 650230
10240, -400, -262, -73, -692510, 48720, 557760
10260, -442, -21, -161, -338380, -181650, 225610
10280, -796, -112, -653, 137340, -522620, -249830
10300, -833, 373, -505, 422380, -811230, -610330
10320, -441, 681, -444, 630840, -912310, -982940
10340, -165, 313, -228, 526330, -921480, -1292200
10360, -373, 146, 151, 194460, -613130, -1315090
10380, -174, -757, -195, -32970, -183330, -1166200
10400, -1998, -1998, -1997, -307860, -38780, -1018360
10420, -839, -1077, -1150, -1215130, -188090, -4130
10440, -24, 167, -274, -244230, -1548120, 528780
10460, -22, 98, -26, 369460, -810040, -550970
10480, 126, 154, -82, 77700, -134890, -772870
10500, 203, 223, -84, -49770, 45360, -519960
10520, 126, 325, 68, -1610, 84490, -241430
10540, 35, 359, 30, 63000, 197400, 53690
10560, -123, 300, -40, 52360, 187460, 408240
10580, -142, 455, 96, 10080, 145950, 770280
10600, -386, 225, -66, 1890, 141190, 998620
10620, -137, 200, -336, -109200, 132510, 1121820
10640, -344, 193, -262, -201670, 162540, 1108030
10660, -313, 20, -389, -444220, 745920, 769160
10680, -341, 73, -303, -491400, 837760, 650720
10700, -329, 64, -51, -455490, 901040, 591990
10720, -238, 76, -8, -433650, 681240, 571970
10740, -231, -40, -33, -443100, 439880, 526890
10760, -10, 71, 132, -382970, 291130, 398790
10780, -155, -122, -82, -249620, 96250, 277760
10800, -49, -93, -160, -117880, -26040, 184310
10820, -44, -108, -256, 31850, 93590, -54530
10840, -473, -202, -525, 174720, 441700, -389410
10860, -1998, -659, -1997, 468370, 910280, -905100
10880, -1998, 1997, -1997, 1555260, 1558410, -2001230
10900, -1998, -1099, -1997, 1768410, 560980, -1932280
10920, -1891, -1241, -1997, -1505910, -1748110, 1298780
10940, -543, -271, -303, -1119230, -1632260, 1124620
10960, -164, 79, -46, -681730, -361200, -170450
10980, -3, 55, -157, -591780, -208390, -519120
11000, -60, -37, -37, -521710, -90300, -555660
11020, -82, 81, 78, -375480, 7350, -493780
11040, -55, 15, -7, -197960, -155400, -333970
11060, -149, -239, -183, -163170, -340410, -110180
11080, -179, -367, -225, -289800, -223720, -55230
11100, -246, -614, -360, -610890, 242550, -240450
11120, -309, -846, -386, -761950, 464660, -293230
11140, -685, -1306, -710, -568680, 298550, -89040
11160, -406, -801, -457, -304570, -14140, 155750
11180, -225, -532, -322, 82390, -249760, 186480
11200, -179, -568, -461, 469280, -400890, 210280
11220, -754, -1513, -958, 681170, -371070, 218050
11240, -1998, -1998, -1997, 317170, 355600, -18550
11260, -264, -1847, -1393, -484610, 1418270, -531860
11280, -383, -342, -152, -2660, 209370, 108080
11300, -221, -276, -163, 576870, -31430, 541380
11320, 85, 123, -305, 626500, -130060, 541240
11340, -251, 115, -90, 563850, 113260, 564060
11360, -179, 130, -92, 412510, 478450, 543970
11380, -208, 78, -111, 365680, 533960, 465710
11400, -139, 179, 8, 399560, 525910, 430220
11420, -84, 179, -12, 486570, 435120, 457660
11440, -20, 261, 7, 514640, 337750, 504280
11460, -76, 204, -14, 464800, 334880, 554610
11480, -101, 188, -37, 378140, 379890, 599340
11500, 5, 317, 19, 329770, 404670, 616490
11520, -329, 36, -99, 251580, 460460, 627270
11540, -426, -136, 230, 128380, 488600, 629860
11560, -289, -161, -81, 249060, 159040, 436240
11580, -35, -42, -108, 417900, -432250, 255920
11600, 280, 273, -13, 454650, -608510, 73360
11620, -155, -131, -109, 338310, -511210, 122710
11640, -46, -32, -117, 158900, -320180, 419370
11660, -153, -234, -290, 98700, -225750, 513170
11680, -1998, -1998, -1997, 53830, 13720, 450380
11700, -1403, -1998, 1117, 204470, 444290, 18060
11720, -1998, 62, -1997, 1437030, 557480, -1472450
11740, -1206, 5, -1247, -1377670, -652050, 395150
11760, -818, 72, -409, -1575700, -1509760, 780430
11780, -478, 231, -450, -920850, -1326220, 443240
11800, -282, -3, -501, -692230, -1302350, 283500
11820, -378, -170, -268, -626570, -1165710, 316470
11840, -304, -92, -187, -437220, -953260, 310520
11860, -191, -74, -163, -154000, -976290, 249200
11880, -180, -314, -389, -30870, -940240, 163660
11900, -126, -205, -357, 155190, -929950, 172690
11920, 190, -61, -501, 396060, -727020, 68250
11940, 160, 150, -184, 617680, -540190, 19180
11960, 161, 202, -50, 867090, -272090, 82110
11980, 99, 8, -104, 904400, -131950, 175490
12000, 436, 142, -471, 878640, -143990, 339920
12020, 261, 475, -630, 983990, -209300, 391020
12040, -136, 725, -634, 1061270, 219030, 292670
12060, -738, 740, -808, 1029350, 919380, 308210
12080, -1349, 382, -887, 884450, 1452920, 436240
12100, -1467, 195, -990, 630700, 1936200, 434700
12120, -1448, 156, -644, 466340, 2169090, 251020
12140, -1200, -503, -1062, 501480, 2155510, 60970
12160, -1886, -1998, -1997, 818790, 1659070, 53480
12180, -1998, -1998, -1479, 1748460, 572950, 288400
12200, -914, -989, -796, 1465310, 580440, 197890
12220, -142, 69, -20, -925540, 2068780, -53760
12240, -176, 148, 175, -421610, 1116080, 265510
12260, -165, 170, 138, 119980, 345380, 642390
12280, -168, 214, 68, 282030, -85750, 852810
12300, -222, 253, 25, 134680, -155820, 896560
12320, -296, 197, -43, -30590, -136640, 955920
12340, -315, 155, -79, -209930, -81480, 1003310
12360, -342, 115, -72, -318780, -69230, 1011570
12380, -344, 28, -87, -339710, -87430, 999670
12400, -365, -119, -130, -310520, -128730, 968800
12420, -682, -716, -536, -71680, -197610, 687890
12440, -1049, -705, -1091, 469210, -294560, 213290
12460, -1414, -1163, -936, 1361570, -617470, -464870
12480, -825, -75, -604, 1059590, -976850, -724990
12500, -253, 298, -14, 546700, -864220, -1019900
12520, 402, 437, -11, -207620, -548730, -870170
12540, -157, -365, -454, -760410, -288120, -363720
12560, -1011, -1879, -1179, -858900, -195230, 47250
12580, -1998, -1998, -1997, -619430, -439600, 221480
12600, -261, 300, 831, 1076950, -770420, -790860
12620, -481, 305, -695, -950880, -315910, -493150
12640, -646, -122, -603, -1349880, -850640, 229950
12660, -566, -78, -328, -936390, -925540, 477680
12680, -403, 11, -252, -581280, -980070, 388290
12700, -301, -63, -305, -425320, -990080, 275800
12720, -44, 38, -227, -307090, -935270, 219100
12740, -15, 37, -144, -172760, -795620, 233730
12760, -5, -68, -174, -137200, -597240, 304920
12780, 56, -30, -138, -59500, -415170, 321160
12800, -16, -97, -94, 86660, -277060, 361200
12820, 149, 150, -72, 245770, -178430, 401870
12840, 7, 108, -120, 259560, 52570, 424970
12860, -133, -42, -435, 10710, 441910, 429100
12880, -712, -542, -687, -276640, 939260, 302400
12900, -1104, -912, -837, -561190, 1596280, -45850
12920, -1462, -757, -753, -468650, 1923950, -495530
12940, -962, -210, -517, 106260, 1886780, -795130
12960, -48, -452, 1035, 785470, 1360590, -630070
12980, -1998, -1998, -1997, 646520, 282100, 272370
13000, -1998, -1998, -1853, -449050, -1262590, 1677130
13020, -650, 438, 248, -54390, 1309630, -822640
13040, 307, 325, 330, 918750, 722890, -1288980
13060, -170, -212, 14, 536690, -34650, -350980
13080, 137, -172, -312, 291620, -441910, 205800
13100, -47, -144, -154, 493430, -576870, 479290
13120, -12, 6, -113, 616420, -339570, 575680
13140, 46, 189, -90, 607880, -123550, 524510
13160, -66, 189, -91, 482510, 127960, 503860
13180, -82, 247, -119, 343630, 361340, 532560
13200, -198, 217, -122, 255640, 490630, 595140
13220, -326, 0, -227, 151130, 612570, 638400
13240, -1373, -1211, -1296, 76930, 659260, 626360
13260, -1998, -623, -1997, 374780, 723240, 249550
13280, -1358, -1998, -1139, 1720390, 429380, -808430
13300, -1573, 562, -1912, 1930600, -658280, -952000
13320, -1962, 94, -1802, -1163260, -663880, 636370
13340, -1092, -92, -976, -2219000, -722190, 931630
13360, -386, 52, -768, -1596910, -1034460, 431550
13380, -107, -153, -533, -1031800, -945560, -41230
13400, -475, -285, -180, -801990, -322000, -578900
13420, -611, -351, -123, -652330, 400540, -1095710
13440, -351, -463, 43, -448560, 746830, -1359750
13460, -467, -1285, -127, -306320, 852110, -1217790
13480, -1213, -1951, -1217, -390950, 358610, -515620
13500, -566, -867, -672, -157570, -889910, 507010
13520, -20, -151, -130, 516320, -1247820, 570570
13540, -57, -128, -144, 560560, -804860, 269920
13560, -90, -186, -195, 215880, -355320, 297010
13580, -325, -494, -413, 3080, -6230, 262640
13600, -967, -1087, -944, -35700, 306530, 131880
13620, -1998, -1998, -1997, 22610, 757960, -201320
13640, -943, -1998, -1518, 132440, 1569890, -880950
13660, -491, -311, -276, 81690, 667310, -81970
13680, -265, -78, -103, 355320, -476000, 1102500
13700, 88, 242, -225, 516250, -59010, 783090
13720, -205, 283, -48, 454580, 176050, 608510
13740, -222, 238, -47, 341600, 520450, 658210
13760, -225, 202, -114, 246190, 634130, 635180
13780, -272, 186, -117, 139580, 670110, 601020
13800, -261, 172, -128, -10780, 724920, 638680
13820, -311, 35, -241, -132020, 721070, 674590
13840, -213, 157, -73, -290990, 716730, 648760
13860, -100, 351, 58, -423010, 677810, 596470
13880, -450, -127, -269, -559930, 562310, 598850
13900, -73, -199, -9, -722610, 373170, 654010
13920, -236, -78, 252, -481600, 103670, 439040
13940, -377, -45, -68, -13580, -164010, 69090
13960, -501, 33, -231, 238490, -531090, -185780
13980, -600, 84, -526, 322000, -942410, -303520
14000, -681, 172, -547, 349510, -1195670, -453530
14020, -933, -90, -819, 362880, -1288140, -657020
14040, -1998, -1998, -1997, 248710, -1199940, -894390
14060, -1998, -1998, -1571, 153580, -637350, -1426460
14080, -1655, -496, -1613, 486150, 914060, -1853950
14100, -996, -317, -481, -249270, -1481970, 803460
14120, -716, -266, -351, -1060360, -1306830, 1094310
14140, -281, -148, -403, -711900, -905870, 564900
14160, -57, 73, -145, -128730, -887320, 27090
14180, -144, -76, -226, -63910, -744240, -24010
14200, 15, 11, -166, 23170, -656250, -65940
14220, 73, -41, -192, 97510, -544880, -21910
14240, 73, -19, -137, 202230, -426300, 95270
14260, 138, 104, -67, 327320, -308420, 168840
14280, -21, 13, -18, 343700, -147420, 281190
14300, 40, 72, 0, 369040, -65100, 378560
14320, 31, 67, -21, 449120, -73430, 434490
14340, -80, -30, -84, 474810, -15190, 456400
14360, -122, -2, -2, 541800, 69230, 312060
14380, -99, 0, -117, 647290, 38430, 28980
14400, -267, 3, -187, 728280, -36680, -208950
14420, -235, 136, -351, 866320, -133910, -388920
14440, -312, 217, -372, 993090, -252560, -572390
14460, -167, 378, -70, 1003590, -311850, -697480
14480, -643, -294, -553, 839020, -357700, -698810
14500, -1904, -1938, -1944, 727930, -307370, -819140
14520, -1968, -1998, 1431, 1261890, -290710, -1174390
