T [ms],AccX [mg],AccY [mg],AccZ [mg],GyroX [mdps],GyroY [mdps],GyroZ [mdps]
38775, -1255, -1783, -925, -949830, -453740, -679420
38795, -1998, -1998, -1997, -994350, -623210, -516390
38815, -1998, -1998, -1997, -902930, -1413020, 25550
38835, -1998, -1998, -1997, -926520, -1578290, 81130
38855, -1998, -1998, -1997, -599340, -1789900, -163870
38875, -1998, -1998, -1997, -106890, -2016070, -615230
38895, -1998, -1998, -1997, -168210, -2109870, -984900
38915, -1998, -1998, -1997, -507640, -1660890, -1639610
38935, -1998, -1998, -1997, -956550, -1582280, -1738030
38955, -1998, -1990, -1997, -1333430, -1572480, -1363320
38975, -1934, -1998, -1997, -1467270, -1663690, -747670
38995, -1998, -1998, -1997, -1197630, -1676080, -299040
39015, -1998, -1998, -1997, -811300, -1704850, -14490
39035, -1998, -1998, -1997, -301840, -1771490, 99610
39055, -1998, -1998, -1997, 155330, -1580600, -56910
39075, -1998, -1998, -1997, 486360, -1401960, -200550
39095, -1998, -1998, -1997, 634340, -1105510, -403760
39115, -1998, -1998, -1997, 730870, -863030, -513030
39135, -1998, -1998, -1997, 812070, -610260, -589750
39155, -1998, -1998, -1997, 882910, -419510, -584150
39175, -1998, -1998, -1997, 1021650, -233590, -566020
39195, -1998, -1998, -1997, 1173480, -71820, -518840
39215, -1998, -1998, -1997, 1295350, 18830, -351330
39235, -1998, -1998, -1997, 1407770, 99120, -99120
39255, -1998, -1998, -1997, 1417360, 180110, 292810
39275, -1998, -1998, -1997, 1297660, 355810, 763980
39295, -1998, -1998, -1997, 1025360, 640710, 1316070
39315, -1998, -1998, -1997, 668360, 1174670, 1682170
39335, -1998, -1998, -1997, -22540, 1768060, 1761410
39355, -1998, -1998, -1997, -12880, 2187150, 1213100
39375, -1998, -1998, -1997, 476070, 2293480, 463890
39395, -1998, -1998, -1997, 1503110, 2293480, 301280
39415, -1998, -1998, -1997, 2093560, 2172800, 992810
39435, -1998, -1998, -1997, 1549870, 1933960, 1928290
39455, -1998, -1998, -1997, 565740, 2117290, 2236780
39475, -1998, -1998, -1997, 111860, 2291870, 1468110
39495, -1998, -1998, -1997, 559580, 2293480, 336280
39515, -1998, -1998, -1997, 1830010, 2283960, 108010
39535, -1998, -1998, -1997, 2221100, 1822730, 805910
39555, -1998, -1998, -1997, 1634500, 1225490, 1695050
39575, -1998, -1998, -1997, 667660, 1347780, 2128280
39595, -1998, -1998, -1997, -106050, 1734110, 1799350
39615, -1998, -1998, -1997, -404810, 2160410, 1008000
39635, -1998, -1998, -1997, -13230, 2277100, 185850
39655, -1998, -1998, -1997, 646240, 2193730, -319760
39675, -1998, -1998, -1997, 1314460, 1653400, -347620
39695, -1998, -1998, -1997, 1598310, 990080, -187460
39715, -1998, -1998, -1997, 1528870, 304500, 97090
39735, -1998, -1998, -1997, 1369480, -133630, 258930
39755, -1998, -1998, -1997, 1264550, -517510, 280210
39775, -1998, -1998, -1997, 1173760, -788130, 178570
39795, -1998, -1998, -1997, 1114680, -969290, -28420
39815, -1998, -1998, -1997, 1063860, -1107470, -344750
39835, -1998, -1998, -1997, 932120, -1111320, -737030
39855, -1998, -1998, -1997, 753480, -1007230, -1140580
39875, -1998, -1998, -1997, 434210, -827400, -1402590
39895, -1998, -1998, -1997, 116620, -511210, -1546930
39915, -1998, -1998, -1997, -142590, -251300, -1454880
39935, -1998, -1998, -1997, -283990, 147280, -1348340
39955, -1998, -1998, -1997, 12250, 911260, -1034390
39975, -1998, -1998, -1997, 412930, 1149330, -890190
39995, -1998, -1998, -1997, 982380, 1162560, -721070
40015, -1998, -1998, -1997, 1488690, 1092630, -508270
40035, -1998, -1998, -1997, 1761550, 785680, 39200
40055, -1998, -1998, -1997, 1816290, 618450, 692090
40075, -1998, -1998, -1997, 1497720, 700910, 1452990
40095, -1998, -1998, -1997, 783860, 1256780, 1973230
40115, -1998, -1998, -1997, 32480, 1893220, 1962800
40135, -1998, -1998, -1997, -69860, 2264850, 1192590
40155, -1998, -1998, -1997, 598080, 2293480, 364840
40175, -1998, -1998, -1997, 1709260, 2290610, 268590
40195, -1998, -1998, -1997, 2101960, 2064720, 1085910
40215, -1998, -1998, -1997, 1489320, 1816640, 1983240
40235, -1998, -1998, -1997, 456470, 2090410, 2235380
40255, -1998, -1998, -1997, 81900, 2280040, 1434020
40275, -1998, -1998, -1997, 583170, 2293480, 316050
40295, -1998, -1998, -1997, 1519700, 2238040, 51380
40315, -1998, -1998, -1997, 2136190, 1747130, 535080
40335, -1998, -1998, -1997, 1710100, 1050560, 1308860
40355, -1998, -1998, -1997, 1059800, 923230, 1814330
40375, -1998, -1998, -1997, 196490, 1196860, 1841910
40395, -1998, -1998, -1997, -346850, 1483230, 1441440
40415, -1998, -1998, -1997, -495180, 1813700, 832160
40435, -1998, -1998, -1997, -222670, 1995210, 150640
40455, -1998, -1998, -1997, 245140, 1969800, -321650
40475, -1998, -1998, -1997, 798770, 1663620, -535780
40495, -1998, -1998, -1997, 1179500, 1100330, -502950
40515, -1998, -1998, -1997, 1295350, 581840, -461090
40535, -1998, -1998, -1997, 1239140, 50050, -330960
40555, -1998, -1998, -1997, 1153040, -287490, -396620
40575, -1998, -1998, -1997, 1085910, -598360, -586600
40595, -1998, -1998, -1997, 940030, -751030, -905590
40615, -1998, -1998, -1997, 718060, -785470, -1253350
40635, -1998, -1998, -1997, 375270, -693140, -1553230
40655, -1998, -1998, -1997, -41440, -530530, -1640310
40675, -1998, -1998, -1997, -416430, -294140, -1564430
40695, -1998, -1998, -1997, -645050, -53550, -1314460
40715, -1998, -1998, -1997, -709100, 271530, -1054690
40735, -1998, -1998, -1997, -565880, 599060, -839160
40755, -1998, -1998, -1997, -354270, 1046990, -750120
40775, -1998, -1998, -1997, 84070, 1351140, -692090
40795, -1998, -1998, -1997, 651070, 1517320, -632310
40815, -1998, -1998, -1997, 1221010, 1393700, -404950
40835, -1998, -1998, -1997, 1581930, 1077720, 65240
40855, -1998, -1998, -1997, 1691900, 780570, 633710
40875, -1998, -1998, -1997, 1431640, 706300, 1287930
40895, -1998, -1998, -1997, 864850, 959630, 1870820
40915, -1998, -1998, -1997, 137410, 1559110, 1989750
40935, -1998, -1998, -1997, -267820, 2141020, 1433530
40955, -1998, -1998, -1997, 165340, 2293480, 477960
40975, -1998, -1998, -1997, 943880, 2286340, 47530
40995, -1998, -1998, -1997, 1943760, 2050300, 442610
41015, -1998, -1998, -1997, 1894760, 1670060, 1098860
41035, -1998, -1998, -1997, 1149330, 1361710, 1976590
41055, -1998, -1998, -1997, 406910, 1745170, 2069970
41075, -1998, -1998, -1997, -305620, 2231600, 1435210
41095, -1998, -1998, -1997, -27370, 2293480, 493850
41115, -1998, -1998, -1997, 776790, 2264360, -125090
41135, -1998, -1998, -1997, 1681820, 1948380, -163380
41155, -1998, -1998, -1997, 1863540, 1191330, 263900
41175, -1998, -1998, -1997, 1709470, 469700, 816970
41195, -1998, -1998, -1997, 1261960, 233240, 1264900
41215, -1998, -1998, -1997, 857570, 257460, 1479100
41235, -1998, -1998, -1997, 245000, 373240, 1685460
41255, -1998, -1998, -1997, -96600, 693980, 1518370
41275, -1998, -1998, -1997, -521080, 897960, 1365140
41295, -1998, -1998, -1997, -626850, 1308510, 891240
41315, -1998, -1998, -1997, -702030, 1538250, 513870
41335, -1998, -1998, -1997, -402780, 1806490, -34300
41355, -1998, -1998, -1997, -21490, 1796760, -401940
41375, -1998, -1998, -1997, 549850, 1582630, -653520
41395, -1998, -1998, -1997, 924070, 1128750, -646450
41415, -1998, -1998, -1997, 1230740, 686980, -709590
41435, -1998, -1998, -1997, 1233120, 226660, -643440
41455, -1998, -1998, -1997, 1238300, -97370, -717640
41475, -1998, -1998, -1997, 1103760, -371840, -794780
41495, -1998, -1998, -1997, 938700, -478520, -994770
41515, -1998, -1998, -1997, 690060, -542640, -1103620
41535, -1998, -1998, -1997, 530110, -443870, -1312500
41555, -1998, -1998, -1997, 298760, -273700, -1373260
41575, -1998, -1998, -1997, 179200, -50680, -1421840
41595, -1998, -1998, -1997, 89670, 227640, -1365630
41615, -1998, -1998, -1997, 135870, 461440, -1242430
41635, -1998, -1998, -1997, 319760, 664650, -1125600
41655, -1998, -1998, -1997, 577290, 822640, -1006600
41675, -1998, -1998, -1997, 922180, 794710, -777070
41695, -1998, -1998, -1997, 1576330, 644210, -209580
41715, -1998, -1998, -1997, 1760430, 485240, 295470
41735, -1998, -1998, -1997, 1584730, 466970, 960610
41755, -1998, -1998, -1997, 1249290, 739200, 1546650
41775, -1998, -1998, -1997, 392630, 1277780, 2000180
41795, -1998, -1998, -1997, -11760, 1893920, 1767710
41815, -1998, -1998, -1997, -136570, 2291380, 970830
41835, -1998, -1998, -1997, 743960, 2293480, 181020
41855, -1998, -1998, -1997, 1801380, 2278570, 291970
41875, -1998, -1998, -1997, 2135280, 1962100, 1191190
41895, -1998, -1998, -1997, 1338890, 1830710, 2067450
41915, -1998, -1998, -1997, 357630, 2093700, 2188830
41935, -1998, -1998, -1997, 137480, 2290330, 1208690
41955, -1998, -1998, -1997, 591710, 2293480, 158830
41975, -1998, -1998, -1997, 1721230, 2195900, 146720
41995, -1998, -1998, -1997, 2156420, 1760290, 621600
42015, -1998, -1998, -1997, 1577940, 1004430, 1536220
42035, -1998, -1998, -1997, 803950, 1126650, 1899590
42055, -1998, -1998, -1997, 17780, 1301090, 1849330
42075, -1998, -1998, -1997, -403410, 1756650, 1249290
42095, -1998, -1998, -1997, -343700, 1902880, 616490
42115, -1998, -1998, -1997, 175560, 2127090, -110670
42135, -1998, -1998, -1997, 642040, 1928710, -411740
42155, -1998, -1998, -1997, 1194340, 1455230, -448910
42175, -1998, -1998, -1997, 1394050, 851480, -322070
42195, -1998, -1998, -1997, 1350440, 298900, -150780
42215, -1998, -1998, -1997, 1247750, -148680, -54810
42235, -1998, -1998, -1997, 1129030, -478100, -130620
42255, -1998, -1998, -1997, 1083390, -767410, -314930
42275, -1998, -1998, -1997, 944300, -940660, -608580
42295, -1998, -1998, -1997, 819700, -1003450, -1041110
42315, -1998, -1998, -1997, 504000, -915250, -1424220
42335, -1998, -1998, -1997, 82040, -759850, -1606360
42355, -1998, -1998, -1997, -341110, -490910, -1627920
42375, -1998, -1998, -1997, -667310, -242410, -1401120
42395, -1998, -1998, -1997, -806890, 101220, -1139530
42415, -1998, -1998, -1997, -798980, 491190, -873950
42435, -1998, -1998, -1997, -594020, 918680, -741020
42455, -1998, -1998, -1997, -237510, 1284150, -683340
42475, -1998, -1998, -1997, 353360, 1485540, -681030
42495, -1998, -1998, -1997, 948920, 1517740, -584500
42515, -1998, -1998, -1997, 1431570, 1238020, -195930
42535, -1998, -1998, -1997, 1791230, 913150, 305620
42555, -1998, -1998, -1997, 1617140, 800240, 991060
42575, -1998, -1998, -1997, 1233050, 839650, 1689590
42595, -1998, -1998, -1997, 414260, 1334830, 2056040
42615, -1998, -1998, -1997, -17920, 1893500, 1665650
42635, -1998, -1998, -1997, -167790, 2285990, 828870
42655, -1998, -1998, -1997, 703500, 2293480, 268240
42675, -1998, -1998, -1997, 1697920, 2264010, 120890
42695, -1998, -1998, -1997, 1879920, 1685110, 890960
42715, -1998, -1998, -1997, 1616720, 1450610, 1550780
42735, -1998, -1998, -1997, 690340, 1579130, 2087470
42755, -1998, -1998, -1997, 104020, 1926190, 1777020
42775, -1998, -1998, -1997, -77840, 2271220, 904330
42795, -1998, -1998, -1997, 407610, 2293480, 233520
42815, -1998, -1998, -1997, 1321460, 2165800, -86660
42835, -1998, -1998, -1997, 1721580, 1491280, 139580
42855, -1998, -1998, -1997, 1697010, 719250, 600320
42875, -1998, -1998, -1997, 1359890, 311290, 1024520
42895, -1998, -1998, -1997, 971740, 158200, 1300530
42915, -1998, -1998, -1997, 519610, 195860, 1498910
42935, -1998, -1998, -1997, 176330, 327460, 1528100
42955, -1998, -1998, -1997, -181020, 521990, 1451730
42975, -1998, -1998, -1997, -439530, 789530, 1209670
42995, -1998, -1998, -1997, -608020, 1045870, 912100
43015, -1998, -1998, -1997, -629510, 1312010, 553840
43035, -1998, -1998, -1997, -543200, 1530130, 166740
43055, -1998, -1998, -1997, -271460, 1649760, -227780
43075, -1998, -1998, -1997, 141610, 1601460, -549500
43095, -1998, -1998, -1997, 573370, 1303680, -697480
43115, -1998, -1998, -1997, 897470, 902440, -741020
43135, -1998, -1998, -1997, 1111180, 571970, -865060
43155, -1998, -1998, -1997, 1101170, 145320, -816060
43175, -1998, -1998, -1997, 1096130, -80360, -971110
43195, -1998, -1998, -1997, 903490, -280280, -1065330
43215, -1998, -1998, -1997, 704900, -383810, -1168090
43235, -1998, -1998, -1997, 485450, -306880, -1324750
43255, -1998, -1998, -1997, 268660, -278740, -1324260
43275, -1998, -1998, -1997, 139090, -56350, -1396640
43295, -1998, -1998, -1997, 5250, 168840, -1337490
43315, -1998, -1998, -1997, 49560, 460040, -1257690
43335, -1998, -1998, -1997, 178920, 689850, -1117620
43355, -1998, -1998, -1997, 492520, 867720, -1027040
43375, -1998, -1998, -1997, 809480, 894460, -827890
43395, -1998, -1998, -1997, 1232630, 781830, -589680
43415, -1998, -1998, -1997, 1572060, 713160, -357910
43435, -1998, -1998, -1997, 1669780, 410130, 730590
43455, -1998, -1998, -1997, 1407000, 532350, 1366540
43475, -1998, -1998, -1997, 688730, 1037680, 1904420
43495, -1998, -1998, -1997, 136850, 1620780, 1975890
43515, -1998, -1998, -1997, -255080, 2256590, 1328460
43535, -1998, -1998, -1997, 309750, 2293480, 421470
43555, -1998, -1998, -1997, 1364020, 2292430, 44450
43575, -1998, -1998, -1997, 2139550, 2096360, 702240
43595, -1998, -1998, -1997, 1807260, 1759940, 1643530
43615, -1998, -1998, -1997, 756980, 1811390, 2241680
43635, -1998, -1998, -1997, 103880, 2203950, 1802360
43655, -1998, -1998, -1997, 97020, 2293480, 624260
43675, -1998, -1998, -1997, 980840, 2293480, 41790
43695, -1998, -1998, -1997, 2037490, 2147600, 147630
43715, -1998, -1998, -1997, 1966930, 1239630, 924910
43735, -1998, -1998, -1997, 1412810, 937160, 1507730
43755, -1998, -1998, -1997, 568750, 955500, 1921500
43775, -1998, -1998, -1997, -4830, 1298010, 1659420
43795, -1998, -1998, -1997, -486780, 1633100, 1216320
43815, -1998, -1998, -1997, -369740, 1954470, 489090
43835, -1998, -1998, -1997, -92750, 2090340, -71680
43855, -1998, -1998, -1997, 567420, 1948800, -483140
43875, -1998, -1998, -1997, 1053430, 1448510, -536130
43895, -1998, -1998, -1997, 1324120, 846370, -489020
43915, -1998, -1998, -1997, 1258950, 277410, -315910
43935, -1998, -1998, -1997, 1251180, -191800, -296730
43955, -1998, -1998, -1997, 1178310, -468230, -485450
43975, -1998, -1998, -1997, 1046010, -719180, -674380
43995, -1998, -1998, -1997, 865060, -805840, -997010
44015, -1998, -1998, -1997, 586600, -735070, -1343790
44035, -1998, -1998, -1997, 215670, -726250, -1412320
44055, -1998, -1998, -1997, -126630, -392140, -1581580
44075, -1998, -1998, -1997, -416990, -264600, -1372980
44095, -1998, -1998, -1997, -549220, 172270, -1274840
44115, -1998, -1998, -1997, -573230, 453600, -994210
44135, -1998, -1998, -1997, -343700, 846650, -888230
44155, -1998, -1998, -1997, -58380, 1118040, -785540
44175, -1998, -1998, -1997, 459060, 1279250, -743190
44195, -1998, -1998, -1997, 886410, 1288420, -592340
44215, -1998, -1998, -1997, 1318730, 1024940, -236740
44235, -1998, -1998, -1997, 1660190, 805700, 157710
44255, -1998, -1998, -1997, 1599780, 680330, 743050
44275, -1998, -1998, -1997, 1393420, 648480, 1417920
44295, -1998, -1998, -1997, 705460, 1071560, 1919260
44315, -1998, -1998, -1997, 148190, 1617560, 1866410
44335, -1998, -1998, -1997, -200130, 2245810, 1150730
44355, -1998, -1998, -1997, 198030, 2293480, 507710
44375, -1998, -1998, -1997, 1350440, 2293480, 66220
44395, -1998, -1998, -1997, 1893640, 2086770, 511770
44415, -1998, -1998, -1997, 1848560, 1526210, 1378090
44435, -1998, -1998, -1997, 1036560, 1609790, 1991920
44455, -1998, -1998, -1997, 179900, 1835120, 2031680
44475, -1998, -1998, -1997, -51170, 2234890, 1161580
44495, -1998, -1998, -1997, 216580, 2293480, 352590
44515, -1998, -1998, -1997, 1190980, 2264360, 40740
44535, -1998, -1998, -1997, 2062480, 2137240, 266490
44555, -1998, -1998, -1997, 1724450, 1282540, 1183140
44575, -1998, -1998, -1997, 1296330, 988610, 1694350
44595, -1998, -1998, -1997, 314860, 1116500, 1925000
44615, -1998, -1998, -1997, -141400, 1382710, 1501290
44635, -1998, -1998, -1997, -542780, 1726480, 941220
44655, -1998, -1998, -1997, -330190, 1832390, 350700
44675, -1998, -1998, -1997, 108710, 1922410, -235200
44695, -1998, -1998, -1997, 515410, 1683430, -493850
44715, -1998, -1998, -1997, 983990, 1265180, -561820
44735, -1998, -1998, -1997, 1148070, 758380, -578690
44755, -1998, -1998, -1997, 1176840, 228480, -510230
44775, -1998, -1998, -1997, 1118320, -156660, -579040
44795, -1998, -1998, -1997, 930440, -443800, -712950
44815, -1998, -1998, -1997, 751590, -632170, -891240
44835, -1998, -1998, -1997, 699650, -553280, -1251180
44855, -1998, -1998, -1997, 338940, -590660, -1409030
44875, -1998, -1998, -1997, 45080, -385070, -1676710
44895, -1998, -1998, -1997, -431270, -220780, -1621830
44915, -1998, -1998, -1997, -625520, -122850, -1392020
44935, -1998, -1998, -1997, -829640, 204330, -1182720
44955, -1998, -1998, -1997, -773710, 400680, -861210
44975, -1998, -1998, -1997, -619850, 810950, -765730
44995, -1998, -1998, -1997, -356790, 1137850, -676060
45015, -1998, -1998, -1997, 135030, 1437100, -686490
45035, -1998, -1998, -1997, 681240, 1515430, -636160
45055, -1998, -1998, -1997, 1282120, 1325310, -424410
45075, 1996, -1998, -1997, 1547490, 1057630, -25620
45095, -1998, -1998, -1997, 1598590, 781410, 623770
45115, -1998, -1998, -1997, 1639540, 1872150, 1841070
45135, -1998, -1998, -1997, 334880, 2293480, 2244620
45155, -1998, -1998, -1997, 1711990, 2293480, 1161090
45175, -1998, -1998, -1997, 1397970, 2199820, 2271780
45195, -1998, -1998, -1997, 704340, 2263940, 1885520
45215, -1998, -1998, -1997, 799750, 2293480, 936040
45235, -1998, -1998, -1997, 1879430, 2289770, 589260
45255, -1998, -1998, -1997, 2098180, 2060450, 1254610
45275, -1998, -1998, -1997, 1358350, 1561420, 1844150
45295, -1998, -1998, -1997, 349650, 1532510, 2018030
45315, -1998, -1998, -1997, -75460, 1713110, 1399510
45335, -1998, -1998, -1997, -359100, 1976520, 583520
45355, -1998, -1998, -1997, -141330, 1807750, 60200
45375, -1998, -1998, -1636, 326130, 1701350, -523950
45395, -1998, -1998, -1997, 556010, 1447950, -481110
45415, -1998, -1998, -1997, 1434300, 1185030, -535780
45435, -1998, -1998, -1997, 1053640, 590660, -371000
45455, -1998, -1998, -1931, 1201270, -248570, -338730
45475, -1998, -1998, -1997, 836920, -411460, -637350
45495, -1998, -1998, -1997, 578340, -954730, -687050
45515, -1998, -1998, -1997, 366590, -827960, -1319220
45535, -1998, -1998, -1671, -156170, -1091160, -1257970
45555, -1858, -1998, -1803, -684180, -720020, -1540210
45575, -1289, -1694, -1420, -1014860, -989870, -1091370
45595, -1114, -1201, -1255, -1145270, -948430, -740320
45615, -1027, -1280, -1352, -1253910, -946260, -404530
45635, -964, -1199, -997, -1024240, -1041950, -69510
45655, -913, -1347, -993, -714210, -1010800, 48230
45675, -1090, -1989, -1262, -551950, -952210, 132720
45695, -1081, -1998, -1220, -506310, -781410, 198660
45715, -702, -1479, -842, -307020, -734650, 268450
45735, -518, -1144, -587, 63140, -798560, 385980
45755, -485, -1103, -603, 201880, -701960, 482160
45775, -674, -1429, -816, 63070, -401940, 538230
45795, -931, -1998, -1218, -41440, -98070, 551530
45815, -1217, -1998, -1370, 110390, 55860, 568260
45835, -1800, -1998, -1928, 144200, 185150, 742140
45855, -1998, -1998, -1997, -95900, 349580, 1008000
45875, -1998, -1998, -1997, -64750, 595000, 1003030
45895, -1998, -1998, -1997, -191100, 1055460, 864570
45915, -1998, -1998, -1997, -370930, 1345470, 794360
45935, -1998, -1998, -1997, -130410, 1630790, 506030
45955, -1998, -1998, -1997, 134190, 1985130, 118230
45975, -1998, -1998, -1997, 605710, 1932280, -15680
45995, -1998, -1998, -1997, 1196370, 1719970, -44660
46015, -1998, -1998, -1997, 1408190, 1346590, 225330
46035, -1998, -1998, -1997, 1384040, 941430, 691180
46055, -1998, -1998, -1997, 1132600, 794430, 1096760
46075, -1998, -1998, -1997, 688520, 840840, 1413440
46095, -1998, -1998, -1997, 231350, 1001630, 1544830
46115, -1998, -1998, -1997, -208040, 1345120, 1291640
46135, -1998, -1998, -1997, -378700, 1653190, 804650
46155, -1998, -1998, -1997, -262920, 1863470, 334530
46175, -1998, -1998, -1997, 202580, 1872710, -115080
46195, -1998, -1998, -1997, 732970, 1669500, -382480
46215, -1998, -1998, -1997, 1166620, 1240330, -429030
46235, -1998, -1998, -1997, 1355690, 791700, -355810
46255, -1998, -1998, -1997, 1398600, 270690, -194460
46275, -1998, -1998, -1997, 1374730, -64470, -156170
46295, -1998, -1998, -1997, 1223040, -347200, -84210
46315, -1998, -1998, -1997, 1136310, -503020, -141470
46335, -1998, -1998, -1997, 994980, -622020, -191730
46355, -1998, -1998, -1997, 937370, -670880, -326060
46375, -1998, -1998, -1997, 884870, -685860, -451710
46395, -1998, -1998, -1997, 836430, -660240, -580580
46415, -1851, -1998, -1997, 807730, -589400, -707630
46435, -1162, -1974, -1332, 697480, -486640, -748230
46455, -1283, -1998, -1350, 621950, -348040, -767130
46475, -1844, -1998, -1997, 573160, -198940, -747740
46495, -1536, -1998, -1860, 415520, -86310, -590590
46515, -1392, -1998, -1519, 550620, 20160, -553770
46535, -1998, -1998, -1997, 769650, 140560, -545370
46555, -1998, -1998, -1997, 562520, 211330, -255150
46575, -1511, -1998, -1720, 735630, 207340, -85190
46595, -1406, -1998, -1873, 1028090, 351680, -52080
46615, -1621, -1998, -1997, 848470, 398930, 256480
46635, -1998, -1998, -1997, 925050, 307090, 588070
46655, -1998, -1998, -1997, 908460, 452480, 847770
46675, -1998, -1998, -1997, 612010, 662830, 1169350
46695, -1998, -1998, -1997, 423920, 914760, 1412390
46715, -1998, -1998, -1997, 124320, 1373540, 1358000
46735, -1998, -1998, -1997, -10570, 1713110, 1136310
46755, -1998, -1998, -1997, 106820, 2029230, 769020
46775, -1998, -1781, -1997, 554260, 2165240, 360500
46795, -1953, -1646, -1996, 1136100, 2048970, 231560
46815, -1687, -1248, -1573, 1467480, 1676150, 489300
46835, -1862, -849, -1353, 1418690, 1353520, 964460
46855, -1998, -1998, -1997, 1080030, 1209250, 1451940
46875, -1998, -1998, -1997, 531440, 1333990, 1708280
46895, -1998, -1998, -1997, -46970, 1730260, 1412110
46915, -1998, -1998, -1997, 104090, 2133670, 390600
46935, -1998, -1998, -1997, 854560, 1937950, -98630
46955, -1998, -1998, -1997, 1357860, 1624980, -167580
46975, -1998, -1998, -1997, 1373260, 1122240, 99470
46995, -1998, -1998, -1997, 1485960, 488600, 405370
47015, -1998, -1998, -1997, 1205190, 263480, 613340
47035, -1998, -1998, -1997, 968310, -38430, 853580
47055, -1998, -1998, -1997, 730800, -36190, 933310
47075, -1998, -1998, -1997, 482720, -101010, 1053990
47095, -1998, -1998, -1997, 326620, 2520, 1015490
47115, -1998, -1998, -1997, 114730, 43260, 1055390
47135, -1998, -1998, -1955, 53690, 169820, 949200
47155, -1819, -1998, -1742, -46270, 257810, 895300
47175, -1584, -1998, -1527, -167860, 337330, 867860
47195, -1621, -1998, -1593, -215390, 426510, 788270
47215, -1727, -1998, -1725, -348110, 593460, 692580
47235, -1971, -1998, -1997, -472990, 745220, 571970
47255, -1691, -1998, -1670, -472010, 861910, 421680
47275, -1998, -1998, -1997, -459270, 1011430, 227430
47295, -1998, -1998, -1997, -375830, 1194900, -40950
47315, -1998, -1998, -1997, -118580, 1379350, -409990
47335, -1998, -1998, -1997, 29610, 1294440, -443590
47355, -1998, -1998, -1997, 520590, 1106000, -644350
47375, -1998, -1998, -1997, 726180, 990710, -825860
47395, -1998, -1998, -1997, 848050, 588840, -737380
47415, -1998, -1998, -1997, 987350, 387870, -841610
47435, -1998, -1998, -1997, 935480, 95830, -804930
47455, -1998, -1998, -1997, 909370, -35420, -873600
47475, -1998, -1998, -1997, 812910, -173110, -895300
47495, -1998, -1998, -1997, 750680, -192920, -999810
47515, -1998, -1998, -1997, 643510, -171360, -1054410
47535, -1998, -1998, -1997, 588280, -83020, -1132180
47555, -1998, -1998, -1997, 529900, 12880, -1127000
47575, -1998, -1998, -1997, 558950, 142870, -1147300
47595, -1998, -1998, -1997, 592270, 258720, -1086190
47615, -1998, -1998, -1997, 754460, 362740, -1031590
47635, -1998, -1998, -1997, 943670, 412370, -916790
47655, -1998, -1998, -1997, 1199450, 432530, -803670
47675, -1998, -1998, -1997, 1443960, 387520, -637420
47695, -1998, -1998, -1997, 1616440, 282170, -363160
47715, -1998, -1998, -1997, 1693370, 204960, 19810
47735, -1998, -1998, -1997, 1593480, 224770, 535920
47755, -1998, -1998, -1997, 1404760, 351190, 1119510
47775, -1998, -1998, -1997, 971810, 708820, 1687560
47795, -1998, -1998, -1997, 398300, 1239770, 2005360
47815, -1998, -1998, -1997, -219450, 1985130, 1723260
47835, -1998, -1998, -1997, -179200, 2283470, 914340
47855, -1998, -1998, -1997, 652610, 2293480, 100240
47875, -1998, -1998, -1997, 1749860, 2264290, 189980
47895, -1998, -1998, -1997, 2192260, 1869420, 1134980
47915, -1998, -1998, -1997, 1476860, 1696380, 2033150
47935, -1998, -1998, -1997, 384580, 2010260, 2227680
47955, -1998, -1998, -1997, -220220, 2288790, 1411130
47975, -1998, -1998, -1997, 401800, 2293480, 280280
47995, -1998, -1998, -1997, 1668310, 2273670, -10640
48015, -1998, -1998, -1997, 2168880, 1795010, 720860
48035, -1998, -1998, -1997, 1663480, 1259510, 1524950
48055, -1998, -1998, -1997, 820260, 1222970, 2048410
48075, -1998, -1998, -1997, 7000, 1616790, 1839390
48095, -1998, -1998, -1997, -449400, 1972810, 1195670
48115, -1998, -1998, -1997, -288540, 2255330, 348250
48135, -1998, -1998, -1997, 316820, 2271570, -291900
48155, -1998, -1998, -1997, 1146600, 1871940, -495180
48175, -1998, -1998, -1997, 1596980, 1186500, -446320
48195, -1998, -1998, -1997, 1676430, 380240, -206500
48215, -1998, -1998, -1997, 1619730, -151760, -109830
48235, -1998, -1998, -1997, 1467760, -487130, -118020
48255, -1998, -1998, -1997, 1243690, -721350, -180110
48275, -1998, -1998, -1997, 1141770, -848470, -424060
48295, -1998, -1998, -1997, 959000, -919030, -674240
48315, -1998, -1998, -1997, 819210, -838180, -1036350
48335, -1998, -1998, -1997, 576310, -705880, -1281560
48355, -1998, -1998, -1997, 359660, -450730, -1491280
48375, -1998, -1998, -1997, 102900, -156870, -1494850
48395, -1998, -1998, -1997, 11410, 132860, -1402310
48415, -1998, -1998, -1997, 56560, 448350, -1262100
48435, -1998, -1998, -1997, 285180, 775250, -1206520
48455, -1998, -1998, -1997, 647640, 956690, -1109220
48475, -1998, -1998, -1997, 1108940, 1028650, -967540
48495, -1998, -1998, -1997, 1502970, 905940, -599690
48515, -1998, -1998, -1997, 1747060, 730100, -51660
48535, -1998, -1998, -1997, 1722210, 623000, 602700
48555, -1998, -1998, -1997, 1420300, 693910, 1281700
48575, -1998, -1998, -1997, 849730, 1067430, 1816850
48595, -1998, -1998, -1997, 189910, 1631140, 1921570
48615, -1998, -1998, -1997, -160160, 2193590, 1366050
48635, -1998, -1998, -1997, 180670, 2293480, 560490
48655, -1998, -1998, -1997, 1285760, 2293480, 667450
48675, -1998, -1998, -1997, 1841840, 1804040, 1730050
48695, -1998, -1998, -1997, 846440, 1913590, 2270030
48715, -1998, -1998, -1997, -28980, 2263100, 1843240
48735, -1998, -1998, -1997, 50960, 2293480, 632870
48755, -1998, -1998, -1997, 1108520, 2293480, -38430
48775, -1998, -1998, -1997, 1943900, 2063390, 324520
48795, -1998, -1998, -1997, 1861440, 1307600, 1065820
48815, -1998, -1998, -1997, 1185590, 1028300, 1630160
48835, -1998, -1998, -1997, 467250, 1083110, 1878310
48855, -1998, -1998, -1997, -157360, 1365630, 1566250
48875, -1998, -1998, -1997, -556990, 1653470, 1082270
48895, -1998, -1998, -1997, -487270, 1878100, 436380
48915, -1998, -1998, -1997, -124250, 2001300, -164150
48935, -1998, -1998, -1997, 470400, 1839320, -554610
48955, -1998, -1998, -1997, 1022840, 1376620, -665350
48975, -1998, -1998, -1997, 1306690, 860790, -709030
48995, -1998, -1998, -1997, 1378370, 256340, -640990
49015, -1998, -1998, -1997, 1315790, -138670, -693980
49035, -1998, -1998, -1997, 1144850, -396620, -838320
49055, -1998, -1998, -1997, 833700, -601090, -930510
49075, -1998, -1998, -1997, 627200, -615440, -1189650
49095, -1998, -1998, -1997, 305620, -586950, -1342810
49115, -1998, -1998, -1997, 29050, -363230, -1494080
49135, -1998, -1998, -1997, -262850, -170800, -1434370
49155, -1998, -1998, -1997, -435750, 163450, -1318240
49175, -1998, -1998, -1997, -464100, 414610, -1081990
49195, -1998, -1998, -1997, -280560, 754670, -962150
49215, -1998, -1998, -1997, 17430, 1049020, -873880
49235, -1998, -1998, -1997, 520660, 1210510, -832020
49255, -1998, -1998, -1997, 1026620, 1259860, -761810
49275, -1998, -1998, -1997, 1541820, 1012620, -481040
49295, -1998, -1998, -1997, 1772330, 728560, 23870
49315, -1998, -1998, -1997, 1770020, 575260, 621810
49335, -1998, -1998, -1997, 1366260, 694890, 1254540
49355, -1998, -1998, -1997, 654010, 973070, 1807400
49375, -1998, -1998, -1997, 283850, 1516130, 1874320
49395, -1998, -1998, -1997, -285250, 2195970, 1390270
49415, -1998, -1998, -1997, 29820, 2281860, 589610
49435, -1998, -1998, -1997, 868210, 2293480, 35350
49455, -1998, -1998, -1997, 1782200, 2175320, 249480
49475, -1998, -1998, -1997, 1944110, 1683220, 997920
49495, -1998, -1998, -1997, 1323140, 1397410, 1841140
49515, -1998, -1998, -1997, 441910, 1684760, 2147810
49535, -1998, -1998, -1997, -246050, 2149070, 1594530
49555, -1998, -1998, -1997, -189840, 2293480, 595630
49575, -1998, -1998, -1997, 683130, 2293480, -198940
49595, -1998, -1998, -1997, 1627080, 2077950, -168980
49615, -1998, -1998, -1997, 1825810, 1312920, 366520
49635, -1998, -1998, -1997, 1536640, 646450, 996870
49655, -1998, -1998, -1997, 1122310, 587790, 1317750
49675, -1998, -1998, -1997, 521360, 503860, 1650530
49695, -1998, -1998, -1997, 113050, 791350, 1558550
49715, -1998, -1998, -1997, -425600, 930440, 1464260
49735, -1998, -1998, -1997, -593320, 1275890, 1001210
49755, -1998, -1998, -1997, -741720, 1524460, 593670
49775, -1998, -1998, -1997, -414540, 1754830, 52640
49795, -1998, -1998, -1997, -23380, 1869490, -423570
49815, -1998, -1998, -1997, 540330, 1732010, -738360
49835, -1998, -1998, -1997, 1083390, 1300180, -837690
49855, -1998, -1998, -1997, 1330280, 744450, -777000
49875, -1998, -1998, -1997, 1356530, 273280, -648130
49895, -1998, -1998, -1997, 1148630, -136010, -504770
49915, -1998, -1998, -1997, 1097740, -359800, -632870
49935, -1998, -1998, -1997, 915460, -502250, -741090
49955, -1998, -1998, -1997, 842730, -462630, -983640
49975, -1998, -1998, -1997, 682290, -473130, -1114190
49995, -1998, -1998, -1997, 541170, -274820, -1295630
50015, -1998, -1998, -1997, 398160, -181930, -1283380
50035, -1998, -1998, -1997, 297430, 55230, -1283450
50055, -1998, -1998, -1997, 365400, 226800, -1229760
50075, -1998, -1998, -1997, 490000, 465150, -1209950
50095, -1998, -1998, -1997, 710290, 667240, -1186010
50115, -1998, -1998, -1997, 1037330, 696570, -1048670
50135, -1998, -1998, -1997, 1280300, 642810, -792960
50155, -1998, -1998, -1997, 1501570, 553910, -483140
50175, -1998, -1998, -1997, 1402100, 365470, 98490
50195, -1998, -1998, -1997, 1597470, 374360, 439670
50215, -1998, -1998, -1997, 1223600, 470190, 1087380
50235, -1998, -1998, -1997, 1119720, 710640, 1541400
50255, -1998, -1998, -1997, 330400, 1329020, 1919330
50275, -1998, -1998, -1997, -32060, 1799140, 1754410
50295, -1998, -1998, -1997, -130620, 2272270, 950670
50315, -1998, -1998, -1997, 709870, 2293480, 267330
50335, -1998, -1998, -1997, 1906450, 2271010, 299810
50355, -1998, -1998, -1997, 2207170, 1939350, 1276240
50375, -1998, -1998, -1997, 1363460, 1814960, 2142560
50395, -1998, -1998, -1997, 261310, 2174830, 2173010
50415, -1998, -1998, -1997, 719180, 2293480, 234080
50435, -1998, -1998, -1997, 1990310, 2284520, 254590
50455, -1998, -1998, -1997, 1983870, 1761060, 946470
50475, -1998, -1998, -1997, 1354080, 1205610, 1765470
50495, -1998, -1998, -1997, 588140, 1443820, 1949780
50515, -1998, -1998, -1997, -198660, 1712480, 1639680
50535, -1998, -1998, -1997, -360080, 2077670, 878920
50555, -1998, -1998, -1997, -127610, 2265970, 125440
50575, -1998, -1998, -1997, 600390, 2190720, -377510
50595, -1998, -1998, -1997, 1282120, 1572130, -463260
50615, -1998, -1998, -1997, 1591870, 941570, -415940
50635, -1998, -1998, -1997, 1586480, 196070, -174720
50655, -1998, -1998, -1997, 1522220, -259980, -150500
50675, -1998, -1998, -1997, 1337910, -549290, -206710
50695, -1998, -1998, -1997, 1066870, -780080, -300160
50715, -1998, -1998, -1997, 952840, -872060, -574140
50735, -1998, -1998, -1997, 774410, -895090, -903140
50755, -1998, -1998, -1997, 590590, -763070, -1226610
50775, -1998, -1998, -1997, 341600, -591430, -1459570
50795, -1998, -1998, -1997, 17710, -321020, -1531950
50815, -1998, -1998, -1997, -172340, -80290, -1438150
50835, -1998, -1998, -1997, -297360, 261870, -1292480
50855, -1998, -1998, -1997, -163380, 552650, -1153670
50875, -1998, -1998, -1997, 76790, 896560, -1074430
50895, -1998, -1998, -1997, 461860, 1191120, -1072050
50915, -1998, -1998, -1997, 1035720, 1212610, -959630
50935, -1998, -1998, -1997, 1469580, 1020460, -625450
50955, -1998, -1998, -1997, 1710030, 775880, -171500
50975, -1998, -1998, -1997, 1542100, 458010, 595070
50995, -1998, -1998, -1997, 1564570, 651630, 974960
51015, -1998, -1998, -1997, 872410, 761250, 1797600
51035, -1998, -1998, -1997, 520030, 1408540, 1884890
51055, -1998, -1998, -1997, -307090, 2037700, 1726620
51075, -1998, -1998, -1997, -14700, 2260230, 823690
51095, -1998, -1998, -1997, 691390, 2293480, 147770
51115, -1998, -1998, -1997, 1872710, 2270170, 321580
51135, -1998, -1998, -1997, 2108470, 1900290, 1157870
51155, -1998, -1998, -1997, 1376060, 1525860, 2125480
51175, -1998, -1998, -1997, 303240, 2036370, 2228450
51195, -1998, -1998, -1997, -270760, 2291730, 1366190
51215, -1998, -1998, -1997, 179270, 2293480, 253050
51235, -1998, -1998, -1997, 1247960, 2271360, -129430
51255, -1998, -1998, -1997, 1817550, 1593200, 443310
51275, -1998, -1998, -1997, 1836380, 1221080, 739060
51295, -1998, -1998, -1997, 1049020, 807730, 1571920
51315, -1998, -1998, -1997, 788690, 870520, 1686230
51335, -1998, -1998, -1997, -81270, 1274910, 1639050
51355, -1998, -1998, -1997, -337610, 1338890, 1325310
51375, -1998, -1998, -1997, -428120, 1891400, 606410
51395, -1998, -1998, -1997, -273140, 1885660, 162470
51415, -1998, -1998, -1997, 425740, 1915550, -358890
51435, -1998, -1998, -1997, 884660, 1650110, -604310
51455, -1998, -1998, -1997, 1279810, 1071490, -529060
51475, -1998, -1998, -1997, 1370180, 502040, -426230
51495, -1998, -1998, -1997, 1328670, 4130, -362390
51515, -1998, -1998, -1997, 1133020, -295680, -351890
51535, -1998, -1998, -1997, 996310, -541940, -451150
51555, -1998, -1998, -1997, 856310, -617750, -663180
51575, -1998, -1998, -1997, 659400, -663390, -814310
51595, -1998, -1998, -1997, 496020, -583940, -1022280
51615, -1998, -1998, -1997, 298550, -517300, -1110760
51635, -1998, -1998, -1997, 141820, -300370, -1211980
51655, -1998, -1998, -1997, 18060, -115990, -1191680
51675, -1998, -1998, -1997, -40950, 163100, -1162770
51695, -1998, -1998, -1997, 38010, 418390, -1084510
51715, -1998, -1998, -1997, 194810, 649040, -998340
51735, -1998, -1998, -1997, 488460, 781620, -904400
51755, -1998, -1998, -1997, 862820, 904540, -877380
51775, -1998, -1998, -1997, 1222270, 810110, -675360
51795, -1998, -1998, -1997, 1531250, 653310, -383040
51815, -1998, -1998, -1997, 1648780, 464590, 54040
51835, -1998, -1998, -1997, 1551200, 421750, 538650
51855, -1998, -1998, -1997, 1129450, 464800, 1177820
51875, -1998, -1998, -1997, 1051960, 743610, 1563870
51895, -1998, -1998, -1997, 183330, 1281560, 1906380
51915, -1998, -1998, -1997, -75670, 1657110, 1629390
51935, -1998, -1998, -1997, -187880, 2248820, 849380
51955, -1998, -1998, -1997, 364560, 2293480, 301350
51975, -1998, -1998, -1997, 1445360, 2281370, 63210
51995, -1998, -1998, -1997, 1887550, 1977710, 546350
52015, -1998, -1998, -1997, 1581930, 1418060, 1475110
52035, -1998, -1998, -1997, 967470, 1427090, 2084880
52055, -1998, -1998, -1997, 87290, 1925140, 1932140
52075, -1998, -1998, -1997, -293650, 2252950, 1096620
52095, -1998, -1998, -1997, 27020, 2293480, 228270
52115, -1998, -1998, -1971, 858060, 2188690, -141610
52135, -1789, -1998, -1589, 1397830, 1763440, -107310
52155, -1998, -1998, -1997, 1109990, 698600, 736470
52175, -1480, -1998, -1369, 1113490, 394730, 994770
52195, -1998, -1998, -1349, 932190, 597450, 1037050
52215, -1749, -1998, -1635, 103040, 700490, 1310400
52235, -1350, -1559, -1130, 94010, 628950, 1249290
52255, -1405, -1570, -1236, 184730, 802900, 1017170
52275, -1426, -1500, -1164, -91140, 1238720, 640220
52295, -1144, -1125, -893, -231070, 1504230, 304710
52315, -1064, -1000, -800, -26250, 1371790, 198730
52335, -1620, -1829, -1487, 268310, 1186220, 127190
52355, -1998, -1998, -1997, 765030, 1081010, -181720
52375, -1254, -1665, -675, 1200500, 1050840, -479920
52395, -1386, -1998, -1168, 751870, 874440, -178150
52415, -1612, -1998, -1943, 566720, 390180, 177940
52435, -1207, -1998, -1005, 1005130, 30520, 127050
52455, -1476, -1998, -1120, 874230, 127330, -36750
52475, -1948, -1998, -1994, 322910, 131740, 43260
52495, -1109, -1998, -1082, 447720, -154070, -2100
52515, -1077, -1998, -772, 675150, -339220, -123900
52535, -1606, -1998, -1543, 303450, -342230, -63630
52555, -1772, -1998, -1887, 126490, -418670, -78260
52575, -1385, -1998, -1217, 461790, -572600, -290710
52595, -1998, -1998, -1997, 397460, -657440, -306250
52615, -1998, -1998, -1997, 118160, -667170, -276220
52635, -1508, -1998, -1295, 299180, -570990, -596750
52655, -1562, -1998, -1635, 246190, -578060, -648410
52675, -1553, -1998, -1609, 5460, -621740, -512540
52695, -1254, -1998, -1139, 91210, -463400, -696990
52715, -993, -1771, -1004, 182000, -354480, -816970
52735, -1016, -1809, -1091, 121240, -341040, -726670
52755, -1332, -1998, -1258, 97160, -191590, -726040
52775, -1303, -1998, -1090, 179830, 126910, -924350
52795, -1253, -1998, -1251, 260050, 351750, -1019410
52815, -1998, -1998, -1997, 231070, 364280, -802130
52835, -1998, -1998, -1997, 409220, 470540, -787500
52855, -1658, -1998, -1959, 738570, 605220, -893900
52875, -1998, -1998, -1997, 694960, 455490, -509180
52895, -1998, -1998, -1997, 1044680, 332360, -355530
52915, -1998, -1998, -1997, 1253350, 340690, -265440
52935, -1998, -1998, -1997, 1198680, 177660, 94360
52955, -1998, -1998, -1997, 1432270, 90160, 323470
52975, -1998, -1998, -1997, 1235430, 112140, 735840
52995, -1998, -1998, -1997, 1155420, 174650, 1113070
53015, -1998, -1998, -1997, 758450, 448490, 1523550
53035, -1998, -1998, -1997, 375760, 821380, 1675170
53055, -1998, -1998, -1997, -86100, 1465170, 1376130
53075, -1998, -1998, -1997, -385840, 1821540, 1042370
53095, -1998, -1998, -1997, -183120, 2071020, 661150
53115, -1998, -1998, -1997, 800730, 2289910, -102270
53135, -1503, -1222, -1997, 1055320, 2209900, -44450
53155, -1472, -196, -1485, 1618470, 1456700, 642180
53175, -1621, 221, -1057, 1645350, 1282960, 1127210
53195, -1998, -789, -1773, 1041600, 1541050, 1432760
53215, -1998, -1998, -1997, 248710, 1763860, 1591450
53235, -1998, -1838, -1997, 46550, 1924370, 1156610
53255, -1998, -1998, -1997, 796460, 1912820, 508410
53275, -1763, -1677, -1644, 738500, 2214590, 279090
53295, -1998, -1998, -1997, 987420, 1767010, 281890
53315, -1998, -1998, -1997, 1195110, 1197560, 598640
53335, -1794, -1998, -1715, 1175370, 1153670, 498120
53355, -1866, -1998, -1401, 1140860, 776720, 564900
53375, -1278, -1998, -1038, 684880, 598850, 885640
53395, -1456, -1998, -1097, 579040, 302050, 1017870
53415, -1921, -1998, -1505, 364210, 366520, 991900
53435, -1998, -1998, -1992, -103950, 644840, 820610
53455, -1998, -1998, -1959, -260260, 545230, 702870
53475, -1998, -1998, -1943, -276010, 510650, 601930
53495, -1679, -1998, -1661, -397390, 620480, 325570
53515, -1604, -1998, -1428, -368690, 536690, 173880
53535, -1392, -1998, -1263, -340760, 482790, 123550
53555, -1152, -1998, -973, -321370, 486500, -42840
53575, -1045, -1980, -848, -297850, 537320, -194180
53595, -1108, -1998, -963, -322910, 563500, -254520
53615, -1468, -1998, -1223, -321440, 539210, -286440
53635, -1582, -1998, -1257, -287700, 632520, -420000
53655, -1990, -1998, -1853, -282380, 770980, -596050
53675, -1998, -1998, -1974, -263830, 671860, -568190
53695, -1683, -1998, -1305, -179270, 604380, -631750
53715, -1405, -1998, -1063, -59010, 567910, -797440
53735, -1817, -1998, -1507, -63350, 397040, -736190
53755, -1998, -1998, -1708, 12600, 244090, -734650
53775, -1998, -1998, -1997, 124460, 198310, -866950
53795, -1998, -1998, -1997, 27930, 149030, -886340
53815, -1998, -1998, -1997, -75670, 147280, -946610
53835, -1998, -1998, -1997, -172690, 212450, -1045940
53855, -1998, -1998, -1997, -294700, 191590, -1017730
53875, -1998, -1998, -1997, -317870, 259140, -1072890
53895, -1998, -1998, -1997, -381780, 317380, -966210
53915, -1998, -1998, -1997, -372680, 370160, -885290
53935, -1998, -1998, -1997, -251300, 416780, -808920
53955, -1998, -1998, -1997, -17430, 511560, -834820
53975, -1998, -1998, -1997, -12040, 782180, -879830
53995, -1998, -1998, -1997, 171150, 683830, -686770
54015, -1998, -1998, -1997, 536060, 879830, -882910
54035, -1998, -1998, -1997, 612360, 786380, -737870
54055, -1998, -1998, -1997, 1024030, 682990, -700840
54075, -1998, -1998, -1997, 1181530, 522760, -538650
54095, -1998, -1998, -1997, 1370600, 306320, -336420
54115, -1998, -1998, -1997, 1405530, 152530, -46340
54135, -1998, -1998, -1997, 1434790, -24220, 263480
54155, -1998, -1998, -1997, 1406930, -117460, 598360
54175, -1998, -1998, -1997, 1293040, -83020, 959980
54195, -1998, -1998, -1997, 980630, 112840, 1383550
54215, -1998, -1998, -1997, 626010, 432600, 1703100
54235, -1998, -1998, -1997, 193830, 897610, 1704640
54255, -1998, -1998, -1997, -126980, 1566320, 1243620
54275, -1998, -1998, -1997, -385630, 2113580, 792330
54295, -1998, -1998, -1997, -27580, 2142000, 583240
54315, -1998, -1998, -1997, 1239560, 2191840, -75110
54335, -1572, -1051, -1485, 1460830, 2109450, 56980
54355, -1411, -602, -1292, 1313480, 1503040, 871500
54375, -1998, -1558, -1980, 1148700, 1106280, 1566740
54395, -1998, -1998, -1997, 574980, 1406160, 1711710
54415, -1998, -1998, -1997, 226590, 1778210, 1292480
54435, -1998, -1998, -1997, 303450, 2027620, 790510
54455, -1998, -1998, -1997, 466130, 2141230, 395080
54475, -1998, -1998, -1997, 891380, 1893430, 187040
54495, -1998, -1998, -1997, 1226260, 1572970, 211750
54515, -1729, -1998, -1641, 1233260, 1234450, 331310
54535, -1381, -1998, -1138, 1144290, 823340, 570570
54555, -1236, -1711, -912, 944930, 568960, 815430
54575, -1279, -1734, -899, 661780, 486220, 925120
54595, -1371, -1943, -1016, 380800, 508480, 943180
54615, -1368, -1998, -1111, 120260, 555590, 874860
54635, -1998, -1998, -1996, -59920, 612850, 726180
54655, -1998, -1998, -1997, -129010, 784000, 417690
54675, -1314, -1998, -1451, -207130, 1072680, -35770
54695, -1998, -1998, -1997, -486570, 666890, 300370
54715, -1995, -1998, -1216, -382060, 732130, 78890
54735, -1278, -1998, -1270, -99680, 992390, -641270
54755, -1998, -1998, -1997, -341040, 810390, -429940
54775, -1955, -1998, -1295, -252630, 696570, -427840
54795, -1998, -1998, -1648, 160510, 669620, -892150
54815, -1998, -1998, -1997, -187040, 757470, -881090
54835, -1998, -1998, -1997, -91840, 566720, -942690
54855, -1998, -1998, -1997, 82320, 507500, -1161370
54875, -1998, -1998, -1559, -172060, 271180, -1031450
54895, -1908, -1998, -1612, -27300, 244930, -1204420
54915, -1998, -1998, -1997, -335790, 124180, -1043560
54935, -1998, -1998, -1997, -335860, 137970, -1094730
54955, -1998, -1998, -1997, -338450, 242130, -1190280
54975, -1998, -1998, -1997, -581210, 290990, -1086120
54995, -1998, -1998, -1997, -476000, 385210, -1114260
55015, -1998, -1998, -1997, -608090, 370860, -952210
55035, -1998, -1998, -1997, -443450, 430220, -977830
55055, -1998, -1998, -1935, -527030, 403760, -830690
55075, -1373, -1998, -1282, -339500, 433440, -870940
55095, -1044, -1881, -970, -323260, 379750, -728630
55115, -1193, -1962, -1162, -204400, 397460, -694610
55135, -746, -527, -530, 84070, 485590, -748020
55155, -1998, -1998, -1997, 401380, 544530, -741650
55175, 42, 235, -290, 775740, 1029140, -1019550
55195, -1924, -1998, -1957, 635390, 1570590, -967890
55215, -1498, -1929, -1997, 538300, 1071980, 30520
55235, -863, -159, -1146, 749140, 453180, 767900
55255, 18, 1016, -704, 1526000, 631120, 209580
55275, -123, 1055, -285, 1861790, 633500, 128030
55295, -580, 1030, -302, 1748880, 742910, 501340
55315, -1560, -108, -1038, 1134490, 1026900, 1032080
55335, -1998, -1998, -1997, 139930, 1486730, 1292340
55355, -1877, -1998, -1927, -602630, 1936620, 911470
55375, -1998, -1998, -1997, 610610, 1847650, 116900
55395, -1998, -1998, -1997, -580790, 2131150, 509670
55415, -1998, -1998, -1656, 1442280, 1440950, -444430
55435, -1210, -1949, -1814, 1235710, 1753500, -840910
55455, -1998, -1998, -1997, 1818530, -77840, -109480
55475, -1998, -1998, -1997, 1387610, -4690, -301980
55495, -1998, -1998, -1997, 1635410, -372540, -942620
55515, -1945, -1587, -759, 533540, -982870, -1008000
55535, -1998, -1644, -1635, 398440, -941570, -1962800
55555, -735, -71, -815, -536200, -589120, -1928360
