T [ms],AccX [mg],AccY [mg],AccZ [mg],GyroX [mdps],GyroY [mdps],GyroZ [mdps]
1679, -300, -356, 1273, -52710, -73360, -3990
1699, -222, -336, 1255, -47250, -45780, 2450
1719, -166, -375, 1109, -5950, -45990, 11550
1739, -189, -430, 941, 36680, -51940, 13160
1759, -233, -452, 865, 59500, -51450, 4970
1779, -296, -450, 896, 56350, -51660, 1190
1799, -333, -450, 915, 37590, -44800, 1890
1819, -280, -426, 882, 21770, -33320, 7840
1839, -219, -398, 834, 14210, -25060, 18200
1859, -180, -378, 809, 11830, -24710, 25900
1879, -238, -380, 797, 9030, -28420, 24430
1899, -254, -390, 806, 1470, -30870, 15400
1919, -220, -377, 840, -8120, -29190, 12390
1939, -153, -339, 894, -18130, -20510, 12880
1959, -105, -314, 906, -23870, -17990, 15540
1979, -140, -369, 893, -18830, -22680, 13720
1999, -192, -414, 871, -11900, -28560, 2870
2019, -196, -431, 874, -6580, -33670, -6650
2039, -161, -463, 923, -8470, -34020, -7070
2059, -179, -469, 970, -15960, -29890, -3500
2079, -161, -480, 975, -23660, -26670, -840
2099, -141, -496, 938, -24080, -24500, 1610
2119, -118, -477, 933, -17150, -31640, 6720
2139, -102, -451, 978, -16030, -31710, 9170
2159, -124, -420, 1030, -19110, -28350, 10150
2179, -113, -409, 995, -21630, -18760, 7350
2199, -58, -401, 902, -14630, -11900, 7840
2219, -21, -400, 879, -3430, -16450, 13230
2239, -44, -387, 936, -6650, -15680, 14490
2259, -87, -389, 990, -20370, -7700, -490
2279, -108, -412, 977, -13230, -3360, -5810
2299, -103, -449, 908, -1120, -4900, -6370
2319, -111, -472, 870, 6650, -7070, -7000
2339, -135, -509, 838, 6650, -9730, -8680
2359, -152, -516, 824, 3850, -12600, -8890
2379, -153, -504, 850, -3780, -12810, -7350
2399, -144, -489, 873, -9590, -12040, -3220
2419, -116, -483, 887, -11060, -10990, 70
2439, -93, -482, 878, -8680, -9240, 1050
2459, -78, -478, 865, -6160, -9380, 490
2479, -54, -473, 866, -8470, -7630, -770
2499, -35, -465, 879, -12740, -8610, -420
2519, -25, -444, 921, -14700, -10360, -1890
2539, -30, -452, 930, -14630, -11970, -4340
2559, -25, -466, 910, -9520, -11900, -6510
2579, -32, -499, 878, -4480, -15750, -7840
2599, -34, -518, 927, -3920, -15750, -10220
2619, -22, -544, 869, -3920, -13510, -12390
2639, -22, -517, 837, -13370, -9240, -11830
2659, -14, -520, 839, -14420, -16450, -9870
2679, -44, -538, 846, -17640, -17850, -10780
2699, -44, -537, 872, -20790, -16100, -10220
2719, -23, -535, 901, -22400, -15680, -6230
2739, -8, -536, 926, -21700, -11760, -4060
2759, -11, -535, 917, -16240, -6090, -5530
2779, -15, -547, 871, -7560, -3850, -7070
2799, -2, -557, 827, -1120, -4130, -6860
2819, 11, -541, 850, -2450, -5530, -4480
2839, 7, -541, 888, -8540, -6300, -1820
2859, -6, -534, 916, -11480, -4690, -1330
2879, -2, -543, 898, -9170, -4480, -910
2899, 22, -545, 856, -2870, -5110, 420
2919, 20, -547, 834, 1260, -4130, 980
2939, 26, -576, 819, 1890, -1750, 280
2959, 13, -544, 868, 4620, -4760, -3220
2979, 19, -512, 839, 5460, -7210, -5040
2999, 61, -514, 850, 12600, -14000, 2940
3019, -86, -488, 957, 9800, -13510, 70
3039, 213, 377, -11, 10220, -5460, 6580
3059, -1, 83, 36, -6860, 74900, 49700
3079, 164, 195, -225, -170380, 285320, 121030
3099, -99, 228, -158, -272160, 419650, 358680
3119, -217, -5, -291, -317590, 559020, 594860
3139, -219, -235, -395, -362390, 615300, 619360
3159, -97, 3, -197, -230160, 641900, 441490
3179, -306, -173, -191, -13720, 714980, 234290
3199, -264, -108, -156, -11550, 828100, 128940
3219, -199, 4, -149, 114310, 802690, 3150
3239, -130, 40, -143, 295330, 737170, -60480
3259, -134, 57, -281, 389830, 678230, -17640
3279, -169, 256, -11, 420910, 678300, 40250
3299, -164, -34, -247, 480550, 709730, 87010
3319, -271, -320, -537, 422450, 674310, 156030
3339, 35, -93, 285, 539140, 695030, 163800
3359, -764, -1998, 1029, 652680, 634200, 221130
3379, -1414, -1998, -1997, 40950, 367780, 477610
3399, 148, 683, 807, -1047480, 632590, -32340
3419, 19, 124, 505, 1348550, 773220, -714420
3439, -62, -27, 76, 577500, 127400, -194950
3459, 42, -94, -233, 199290, -513450, 254590
3479, -50, -135, -138, 95970, -662900, 534520
3499, -28, -45, -52, 161560, -467110, 677390
3519, -100, -32, -15, 370790, -374850, 767690
3539, -115, 59, 25, 321020, -190260, 748300
3559, -86, -5, -140, 150920, -10920, 658770
3579, -110, -52, -177, -93100, 174650, 529130
3599, -119, -1, -97, -202790, 367430, 401870
3619, -116, -56, -160, -183680, 493780, 304080
3639, -160, -128, -216, -134820, 514780, 271320
3659, -255, -278, -381, -45710, 537810, 234360
3679, -390, -280, -446, 6440, 667520, 100380
3699, -413, -162, -543, 129850, 847420, -101220
3719, -216, 24, -454, 418670, 937510, -262360
3739, 52, -387, -272, 817530, 838110, -239400
3759, -798, -1998, 403, 1071140, 597940, -2870
3779, 145, -1998, -1997, 683200, 129080, 321440
3799, 230, -1227, -1084, -678930, -250740, 64470
3819, -64, -547, -324, -347060, -180950, -317240
3839, -151, -344, -219, -293720, -286510, -164990
3859, -82, -188, -164, 56000, -478030, 38500
3879, -87, -214, -251, 189490, -550760, 18550
3899, -49, -81, -135, 186200, -477050, -54460
3919, -46, -14, -5, 195020, -360850, -152880
3939, 4, 42, 25, 120540, -203770, -255080
3959, 11, 37, 16, -7700, -132370, -263550
3979, -60, -85, -35, -142450, -146020, -183750
3999, -117, -220, -165, -245210, -312200, 66010
4019, -88, -459, -359, -235830, -363160, 67200
4039, -92, -731, -546, -147910, -314090, 1610
4059, -217, -1416, -1026, -50190, -74270, -184380
4079, -364, -1998, -1152, 105980, 312410, -478240
4099, 458, -1998, -1407, 273210, 493710, -627060
4119, -510, -1998, -1187, 193410, -418740, 23800
4139, -418, -1124, -813, -208250, -1012900, 262010
4159, -193, -580, -585, -245910, -930860, 11550
4179, -142, -361, -335, -200830, -713020, -129850
4199, -114, -237, -226, -241640, -444780, -283430
4219, -50, -151, -191, -261240, -285880, -408240
4239, -85, -189, -165, -210070, -230300, -397740
4259, -76, -159, -114, -111230, -228200, -353010
4279, -117, -229, -146, -26110, -293580, -293090
4299, -141, -373, -287, 15120, -377580, -233450
4319, -111, -479, -365, 69930, -400890, -258020
4339, -63, -631, -354, 156940, -362950, -308280
4359, -40, -1079, -374, 182840, -353290, -305970
4379, -109, -1998, -1113, -2520, -427980, -235410
4399, -64, -1998, -1997, -333760, -537600, -180670
4419, 9, -1601, -1049, -226520, -465430, -267190
4439, -66, -804, -438, 160230, -328300, -309260
4459, -60, -484, -221, 296030, -404040, -240450
4479, -99, -372, -147, 240730, -478310, -181790
4499, -49, -299, -190, 75740, -495390, -148190
4519, -40, -333, -255, -54670, -486150, -125300
4539, -31, -315, -221, -94850, -429590, -81970
4559, -42, -326, -171, -60690, -362530, -53690
4579, -52, -393, -204, -57400, -304290, -28070
4599, -49, -567, -345, -92470, -261170, -18620
4619, -45, -825, -519, -115290, -173600, -54950
4639, -39, -1182, -663, -66990, -33950, -131110
4659, 20, -1768, -792, 10920, 109130, -211820
4679, 71, -1998, -1021, 18620, 118510, -201600
4699, 15, -1609, -901, -57260, -57540, -72380
4719, -27, -1095, -611, -11130, -226100, 65100
4739, -33, -734, -344, 93590, -222110, 86730
4759, -34, -555, -244, 110180, -140910, 46270
4779, -17, -488, -257, 17430, -49000, -980
4799, -20, -472, -268, -62860, 38780, -31850
4819, -23, -469, -259, -76930, 125720, -45990
4839, -26, -494, -249, -41020, 180740, -37240
4859, -14, -541, -246, -3220, 198240, -5320
4879, -4, -702, -313, 14630, 177660, 49210
4899, -14, -985, -506, -1190, 129150, 126980
4919, -54, -1347, -768, -40530, 96320, 191660
4939, -69, -1515, -896, -68250, 148120, 180670
4959, -34, -1304, -717, -41300, 276710, 86170
4979, -8, -1002, -462, 39690, 369880, 14070
4999, -21, -808, -348, 81130, 333620, 57260
5019, -46, -705, -347, 30800, 237090, 152320
5039, -53, -643, -365, -42910, 180460, 212870
5059, -61, -624, -384, -68040, 184520, 222950
5079, -71, -634, -399, -37870, 226310, 206150
5099, -82, -662, -397, 22400, 289240, 173320
5119, -84, -713, -388, 78680, 356930, 134610
5139, -71, -804, -396, 98560, 406700, 106890
5159, -57, -935, -445, 68460, 427280, 99610
5179, -53, -1056, -509, 2450, 410200, 117810
5199, -59, -1127, -598, -69930, 358540, 154070
5219, -56, -1097, -622, -121450, 303030, 181020
5239, -52, -1003, -587, -110810, 278250, 180180
5259, -52, -889, -494, -29120, 271880, 173180
5279, -59, -805, -407, 78400, 261800, 177870
5299, -70, -773, -374, 139090, 242200, 191590
5319, -82, -763, -380, 118440, 235480, 191310
5339, -81, -749, -384, 42560, 267400, 157710
5359, -73, -746, -378, -32620, 324380, 101150
5379, -56, -775, -378, -69370, 359590, 58660
5399, -48, -869, -415, -63840, 339920, 57260
5419, -53, -1027, -519, -40390, 270900, 95130
5439, -61, -1160, -619, -20510, 189840, 140070
5459, -58, -1163, -605, -560, 152530, 147210
5479, -55, -1070, -511, 28910, 168140, 109900
5499, -57, -956, -437, 43470, 182420, 72870
5519, -54, -856, -400, 20090, 165760, 58100
5539, -50, -758, -364, -20860, 135800, 52220
5559, -47, -699, -333, -39620, 107800, 47180
5579, -48, -682, -315, -26460, 77630, 50120
5599, -55, -716, -336, -1330, 40740, 63280
5619, -61, -788, -388, 13440, 5390, 75670
5639, -64, -871, -439, 11550, -6370, 66640
5659, -60, -945, -465, 1120, 21560, 23940
5679, -45, -1009, -470, -9170, 75600, -39690
5699, -30, -1063, -474, -17010, 109690, -88130
5719, -31, -1106, -519, -23730, 78190, -87150
5739, -46, -1107, -567, -30660, -125440, 16380
5759, -59, -1026, -525, 10010, -171780, 28070
5779, -63, -922, -454, 32550, -159110, -5530
5799, -58, -826, -392, 23940, -129710, -52290
5819, -54, -751, -352, -4410, -109970, -87500
5839, -50, -714, -342, -30170, -110390, -101850
5859, -48, -708, -345, -37660, -127610, -98350
5879, -50, -739, -362, -24710, -156030, -83510
5899, -51, -803, -401, -3220, -188580, -65940
5919, -57, -888, -449, 15260, -210700, -58450
5939, -61, -967, -487, 18130, -205240, -73570
5959, -56, -1012, -503, -2450, -170450, -113960
5979, -39, -1011, -500, -35700, -133350, -156100
5999, -29, -986, -495, -52290, -136220, -163800
6019, -36, -965, -504, -31640, -193900, -123340
6039, -54, -934, -493, 20090, -266210, -68810
6059, -63, -879, -454, 64540, -297780, -48440
6079, -58, -810, -400, 65380, -272160, -75880
6099, -48, -755, -367, 22680, -220920, -121450
6119, -38, -738, -363, -30240, -184100, -148050
6139, -36, -768, -393, -58030, -180320, -140980
6159, -37, -826, -436, -51030, -196280, -115430
6179, -40, -889, -469, -22120, -206150, -95830
6199, -39, -959, -497, 5810, -196560, -93730
6219, -33, -1006, -515, 20300, -173950, -104440
6239, -30, -1020, -506, 23800, -154910, -113330
6259, -28, -994, -482, 17150, -150360, -111790
6279, -28, -946, -468, -6510, -160090, -98420
6299, -29, -906, -476, -34230, -173600, -79590
6319, -30, -870, -473, -35840, -177800, -63980
6339, -32, -834, -446, -210, -164640, -58940
6359, -31, -798, -396, 45500, -137830, -63630
6379, -30, -776, -358, 61670, -108150, -71680
6399, -24, -786, -364, 30870, -86030, -74410
6419, -18, -835, -413, -24010, -74270, -67480
6439, -17, -894, -465, -60620, -68390, -52290
6459, -17, -946, -495, -56420, -63210, -34860
6479, -19, -983, -505, -21910, -55230, -20230
6499, -23, -1007, -511, 13370, -43400, -11200
6519, -21, -990, -501, 27580, -24850, -11270
6539, -19, -936, -462, 26040, -420, -17920
6559, -18, -872, -417, 17780, 18480, -19180
6579, -21, -825, -393, 2170, 20720, -6090
6599, -23, -810, -403, -17640, 11270, 17360
6619, -27, -815, -426, -28700, 6440, 38080
6639, -29, -830, -439, -18480, 19600, 45290
6659, -28, -837, -425, 11550, 50470, 38850
6679, -28, -853, -407, 38920, 85470, 28140
6699, -27, -892, -417, 36120, 108500, 24570
6719, -24, -943, -461, -280, 114380, 31360
6739, -22, -976, -504, -41370, 111370, 42420
6759, -23, -971, -507, -51940, 108430, 53340
6779, -27, -940, -482, -24640, 105630, 65730
6799, -32, -913, -460, 12600, 100170, 80220
6819, -35, -889, -449, 32410, 99050, 88830
6839, -39, -860, -427, 33250, 110950, 84980
6859, -39, -830, -403, 24850, 133630, 72170
6879, -36, -815, -392, 8960, 154210, 61040
6899, -38, -829, -404, -13090, 160440, 60060
6919, -36, -859, -435, -31990, 152460, 69090
6939, -36, -898, -463, -34020, 140700, 80360
6959, -41, -929, -471, -14000, 133210, 88480
6979, -42, -947, -467, 13440, 133210, 90510
6999, -43, -951, -467, 22610, 139020, 84700
7019, -40, -938, -466, 8610, 146230, 73360
7039, -40, -910, -450, -9730, 150780, 62440
7059, -38, -883, -429, -15680, 148120, 58030
7079, -41, -860, -418, -11130, 134120, 63630
7099, -41, -851, -419, -5460, 113540, 74270
7119, -45, -852, -428, -3220, 96320, 81130
7139, -46, -858, -428, 1680, 89460, 79170
7159, -47, -867, -424, 10850, 94850, 68180
7179, -45, -884, -424, 14140, 107380, 50610
7199, -43, -904, -433, 3220, 118300, 32550
7219, -36, -922, -447, -15610, 119000, 20440
7239, -34, -936, -459, -26600, 103320, 20720
7259, -38, -939, -462, -19110, 72870, 33740
7279, -45, -932, -457, 420, 40110, 49490
7299, -45, -910, -447, 13580, 21490, 52360
7319, -45, -881, -429, 12810, 22820, 36960
7339, -41, -853, -410, 6930, 34300, 13580
7359, -41, -832, -391, 4130, 40110, -3850
7379, -40, -829, -390, 4130, 31710, -8120
7399, -41, -851, -408, 700, 11900, -2660
7419, -41, -890, -436, -6370, -9240, 3710
7439, -42, -924, -459, -9730, -23940, 4550
7459, -42, -943, -467, -3010, -29820, -1400
7479, -42, -942, -455, 7770, -27720, -13720
7499, -39, -928, -444, 5740, -23310, -41650
7519, -36, -915, -440, -1960, -37800, -41650
7539, -36, -904, -440, -3430, -62440, -31990
7559, -39, -891, -439, 4130, -88620, -19950
7579, -46, -876, -434, 13440, -102900, -16730
7599, -44, -863, -426, 14770, -100030, -27650
7619, -43, -859, -420, 9170, -87850, -45430
7639, -39, -856, -418, 2590, -75880, -61460
7659, -37, -861, -418, -2590, -73150, -68740
7679, -36, -876, -426, -4620, -81550, -65590
7699, -35, -899, -443, -4130, -96250, -56560
7719, -37, -924, -461, -840, -110320, -48020
7739, -38, -937, -470, 5600, -117320, -44800
7759, -37, -927, -461, 10500, -113470, -50400
7779, -36, -902, -444, 8120, -103530, -60690
7799, -35, -875, -429, -420, -95340, -68460
7819, -31, -853, -422, -7770, -95480, -67760
7839, -34, -843, -419, -4690, -103460, -58380
7859, -32, -843, -417, 5880, -112140, -46340
7879, -33, -854, -423, 11690, -113750, -39690
7899, -34, -879, -434, 6300, -105070, -41160
7919, -32, -907, -452, -8610, -87990, -49700
7939, -26, -927, -467, -19950, -70350, -58940
7959, -25, -929, -464, -14350, -59920, -60340
7979, -25, -926, -454, -840, -60200, -52080
7999, -23, -924, -456, 3220, -68320, -38080
8019, -27, -919, -461, 210, -76720, -23800
8039, -26, -911, -461, 70, -77000, -15120
8059, -29, -889, -446, 4970, -65590, -15330
8079, -27, -868, -425, 9310, -46690, -20860
8099, -25, -860, -419, 2800, -28980, -25900
8119, -25, -859, -425, -11130, -17850, -25480
8139, -22, -856, -425, -16310, -14560, -17010
8159, -24, -856, -424, -8960, -16310, -2870
8179, -25, -861, -428, 700, -17920, 10990
8199, -29, -877, -436, 5110, -13300, 19390
8219, -26, -901, -454, 2100, 350, 19460
8239, -26, -920, -462, -3010, 21000, 12600
8259, -25, -929, -457, -560, 41440, 6230
8279, -23, -926, -450, 3010, 53060, 6580
8299, -23, -931, -454, -2590, 52780, 15260
8319, -26, -942, -470, -12320, 44730, 29330
8339, -28, -947, -481, -14420, 37310, 42630
8359, -31, -924, -464, -3570, 38500, 48790
8379, -33, -876, -432, 10780, 48440, 47250
8399, -32, -838, -411, 13020, 62790, 40390
8419, -32, -813, -399, 5040, 77000, 32970
8439, -32, -814, -396, -490, 85680, 31500
8459, -31, -830, -404, -1470, 85470, 37940
8479, -32, -868, -427, -1750, 80220, 47810
8499, -39, -925, -457, -3640, 76440, 55160
8519, -35, -982, -494, -10500, 81760, 52710
8539, -33, -1013, -510, -17990, 93730, 41930
8559, -34, -988, -490, -16100, 101920, 32620
8579, -30, -931, -462, -7840, 99540, 30660
8599, -33, -872, -427, 2240, 83580, 38430
8619, -37, -828, -404, 15330, 60620, 53620
8639, -41, -798, -384, 25970, 43120, 65800
8659, -45, -783, -377, 25130, 39480, 67130
8679, -46, -793, -385, 9450, 51310, 55160
8699, -42, -818, -404, -14350, 75670, 31920
8719, -38, -858, -424, -28770, 97930, 9170
8739, -32, -905, -439, -21700, 104090, -70
8759, -32, -952, -453, -2590, 89950, 7490
8779, -38, -999, -483, 7700, 63420, 23310
8799, -38, -1020, -506, -210, 38150, 34790
8819, -36, -991, -500, -12740, 27300, 32480
8839, -38, -935, -464, -11410, 25480, 23030
8859, -40, -874, -424, 4620, 23310, 15190
8879, -40, -827, -397, 15890, 19460, 8750
8899, -39, -803, -385, 15820, 13930, 3570
8919, -38, -798, -380, 12180, 6860, 1680
8939, -39, -815, -391, 9380, -1400, 2730
8959, -41, -844, -409, 6300, -11410, 5810
8979, -43, -876, -429, 210, -16380, 3990
8999, -38, -908, -448, -10570, -10010, -8680
9019, -35, -947, -470, -17850, 140, -25270
9039, -32, -975, -477, -12320, 2940, -35070
9059, -33, -982, -477, 2100, -6790, -34930
9079, -35, -963, -468, 14000, -30240, -24990
9099, -37, -933, -457, 15540, -54180, -15190
9119, -38, -897, -445, 7980, -68460, -13510
9139, -41, -863, -425, 3150, -75180, -17080
9159, -41, -833, -408, 5250, -74130, -24360
9179, -41, -820, -400, 4830, -68390, -35140
9199, -38, -823, -400, 1680, -64260, -44030
9219, -35, -854, -421, 70, -63770, -48440
9239, -35, -896, -438, 700, -75460, -44030
9259, -38, -931, -453, 1890, -76720, -45220
9279, -36, -937, -459, -11830, -73850, -51590
9299, -33, -921, -460, -23520, -70140, -57330
9319, -27, -897, -454, -17080, -75040, -54460
9339, -31, -884, -442, 10430, -91560, -39270
9359, -37, -866, -423, 32830, -103390, -26810
9379, -35, -850, -411, 26810, -100310, -28490
9399, -33, -845, -411, 2870, -86450, -38430
9419, -33, -856, -422, -18900, -69930, -48300
9439, -28, -877, -442, -25060, -62090, -49630
9459, -28, -893, -445, -13580, -65310, -40810
9479, -32, -891, -437, -280, -64750, -33810
9499, -26, -873, -439, -3080, -62720, -30940
9519, -24, -865, -436, 1120, -61600, -25270
9539, -26, -870, -429, 19880, -61250, -15750
9559, -30, -890, -428, 30520, -56770, -9800
9579, -32, -920, -434, 12600, -44590, -11340
9599, -26, -961, -478, -32970, -24990, -21980
9619, -18, -990, -523, -64890, -9800, -30590
9639, -16, -978, -514, -36960, -4270, -26670
9659, -19, -941, -464, 26670, -12600, -7910
9679, -28, -905, -419, 60410, -26460, 13160
9699, -31, -860, -410, 34090, -31850, 23030
9719, -31, -829, -419, -15470, -20790, 17710
9739, -26, -810, -424, -37940, -1540, 9520
9759, -29, -791, -393, -15750, 16100, 6580
9779, -31, -803, -382, 16240, 27510, 10710
9799, -30, -845, -404, 14770, 34230, 14350
9819, -27, -907, -454, -11200, 44100, 14000
9839, -21, -959, -492, -24290, 53760, 14210
9859, -23, -988, -491, -8260, 53340, 22750
9879, -31, -993, -476, 16450, 46830, 35980
9899, -32, -972, -472, 9870, 39690, 43680
9919, -28, -924, -482, -19390, 41510, 39130
9939, -30, -853, -430, -19460, 55020, 29120
9959, -32, -820, -400, 15330, 65870, 27020
9979, -30, -790, -372, 36960, 59150, 37030
9999, -37, -794, -366, 30520, 52710, 46830
10019, -37, -834, -413, -1820, 53060, 49000
10039, -35, -878, -461, -38430, 61320, 40390
10059, -34, -902, -465, -34230, 78610, 27230
10079, -37, -922, -444, 6090, 93450, 19460
10099, -31, -945, -447, 24850, 91700, 20230
10119, -33, -972, -470, 7770, 79170, 24640
10139, -31, -981, -499, -13440, 63630, 32200
10159, -33, -941, -472, -15190, 51380, 36260
10179, -39, -888, -424, 7630, 44660, 38640
10199, -41, -856, -412, 23030, 38920, 39410
10219, -39, -837, -415, 8400, 37380, 32970
10239, -37, -828, -414, -6860, 44660, 19670
10259, -38, -822, -400, 560, 51800, 10360
10279, -36, -831, -391, 15960, 52220, 7770
10299, -39, -863, -401, 17640, 46200, 9730
10319, -38, -916, -444, -1120, 35210, 12600
10339, -36, -956, -487, -24430, 25410, 11690
10359, -36, -975, -490, -25060, 23660, 5950
10379, -36, -963, -469, -2730, 23940, -420
10399, -34, -932, -442, 17500, 19670, -4550
10419, -38, -900, -431, 17150, 9170, -5950
10439, -36, -869, -426, 4200, -5950, -4200
10459, -37, -839, -411, -490, -19180, -1960
10479, -40, -825, -396, 8260, -27860, -560
10499, -43, -833, -397, 13300, -32970, -1400
10519, -41, -862, -420, 1120, -31710, -8820
10539, -36, -890, -446, -18060, -22820, -23730
10559, -34, -907, -450, -21630, -14070, -37520
10579, -32, -912, -433, -3220, -13230, -42070
10599, -35, -923, -435, 15680, -25340, -35700
10619, -37, -936, -456, 13090, -47460, -23870
10639, -36, -937, -472, -5390, -66710, -16030
10659, -35, -912, -460, -15540, -72520, -17360
10679, -35, -866, -423, -6580, -66360, -25620
10699, -36, -831, -397, 6580, -57400, -35350
10719, -36, -828, -400, 6580, -56210, -39900
10739, -36, -848, -419, -700, -64190, -36540
10759, -34, -880, -434, -1610, -71890, -31080
10779, -35, -905, -439, 3570, -71610, -30240
10799, -33, -927, -449, 2520, -64470, -34930
10819, -29, -950, -477, -13650, -57820, -41020
10839, -27, -964, -495, -31220, -58520, -42700
10859, -28, -950, -474, -24430, -63490, -38990
10879, -30, -915, -444, 5250, -65870, -33880
10899, -31, -880, -421, 25130, -66850, -30310
10919, -32, -856, -420, 18200, -70350, -26670
10939, -31, -842, -422, -140, -75040, -21910
10959, -33, -829, -413, -8470, -75320, -18200
10979, -33, -825, -402, -3010, -66220, -19180
10999, -30, -840, -410, -7980, -39340, -28840
11019, -27, -875, -438, -16310, -33880, -27580
11039, -25, -913, -459, -8680, -33040, -20860
11059, -27, -938, -462, 8400, -32620, -13300
11079, -28, -956, -466, 14490, -30240, -9170
11099, -28, -967, -471, 1190, -26810, -7980
11119, -27, -958, -481, -18760, -22750, -8890
11139, -25, -922, -469, -20650, -18690, -8400
11159, -27, -878, -439, -210, -16310, -3780
11179, -28, -844, -413, 20440, -16240, 3290
11199, -30, -825, -398, 26600, -14560, 9100
11219, -31, -821, -397, 17360, -9100, 11480
11239, -30, -835, -410, 280, 1400, 9870
11259, -31, -861, -424, -13090, 14490, 6370
11279, -28, -896, -443, -17850, 26600, 3430
11299, -26, -930, -463, -17080, 34440, 3080
11319, -24, -958, -480, -12320, 36960, 6090
11339, -25, -959, -480, -1190, 34860, 12390
11359, -27, -938, -461, 12600, 30800, 20160
11379, -29, -904, -440, 19530, 26250, 27650
11399, -31, -878, -428, 13790, 24360, 32200
11419, -32, -857, -424, -770, 28560, 30730
11439, -32, -840, -419, -11200, 39130, 24500
11459, -34, -832, -411, -9100, 50190, 18970
11479, -32, -839, -411, 1190, 56630, 17780
11499, -31, -860, -417, 9240, 56980, 20930
11519, -32, -890, -434, 10220, 54390, 25480
11539, -34, -922, -452, 3360, 53340, 27650
11559, -34, -944, -465, -6300, 55930, 25340
11579, -33, -949, -470, -11620, 58240, 22120
11599, -33, -940, -464, -11060, 57820, 20160
11619, -32, -922, -456, -6020, 53970, 20440
11639, -35, -899, -444, 4270, 47670, 22750
11659, -35, -874, -426, 14700, 40950, 25760
11679, -36, -858, -414, 18130, 35980, 27160
11699, -38, -850, -410, 11760, 33600, 26040
11719, -38, -851, -417, -1050, 36120, 20510
11739, -37, -861, -425, -12180, 42070, 11900
11759, -34, -878, -433, -13230, 46200, 4900
11779, -34, -894, -434, -4830, 44100, 3220
11799, -35, -913, -443, 4830, 35630, 6230
11819, -36, -929, -452, 8190, 24290, 10430
11839, -37, -934, -456, 5110, 16520, 10920
11859, -37, -922, -450, 280, 13580, 7210
11879, -36, -901, -439, -3150, 12320, 1960
11899, -36, -882, -430, -4620, 8820, -1540
11919, -36, -871, -427, -3500, 2870, -3010
11939, -38, -863, -424, 490, -3290, -3570
11959, -37, -866, -421, 6230, -7770, -4970
11979, -37, -872, -420, 9520, -11410, -6580
11999, -38, -886, -426, 6930, -14700, -8540
12019, -34, -902, -440, -2800, -16590, -11970
12039, -37, -914, -449, -13580, -16520, -17570
12059, -33, -915, -451, -15540, -17150, -21700
12079, -32, -913, -447, -7350, -21560, -22190
12099, -33, -907, -444, 3360, -30380, -18690
12119, -34, -898, -438, 9660, -40250, -14560
12139, -35, -884, -431, 8750, -45850, -13510
12159, -33, -871, -425, 2590, -45360, -17150
12179, -35, -862, -421, -4060, -42420, -21840
12199, -35, -866, -424, -8470, -41090, -24430
12219, -32, -878, -433, -10150, -42630, -24220
12239, -32, -895, -444, -7490, -44310, -23380
12259, -32, -904, -445, -840, -44380, -22890
12279, -30, -908, -442, 4970, -43050, -23310
12299, -31, -908, -444, 4620, -42700, -23100
12319, -29, -909, -448, -1610, -44100, -21630
12339, -29, -905, -449, -8680, -45640, -19740
12359, -30, -897, -445, -9730, -45290, -18270
12379, -31, -883, -436, -4550, -43610, -17010
12399, -30, -872, -431, 2030, -41580, -15820
12419, -31, -869, -425, 6300, -39900, -13930
12439, -30, -872, -429, 6510, -37380, -12250
12459, -30, -881, -432, 2520, -32900, -12040
12479, -30, -889, -434, -2660, -27230, -12180
12499, -29, -896, -443, -7630, -22260, -11410
12519, -27, -901, -447, -11200, -19250, -9450
12539, -28, -904, -450, -8680, -17360, -6160
12559, -28, -904, -447, 420, -14980, -2730
12579, -27, -903, -440, 9660, -11130, -210
12599, -28, -900, -441, 10990, -7070, 1470
12619, -28, -895, -442, 3150, -3150, 2730
12639, -29, -886, -440, -6510, 1050, 3570
12659, -29, -878, -436, -9310, 5110, 5040
12679, -29, -876, -433, -4900, 8470, 7420
12699, -30, -880, -433, 1610, 10990, 10570
12719, -30, -887, -437, 5880, 13440, 13300
12739, -30, -890, -437, 6370, 17850, 12810
12759, -30, -894, -437, 840, 30380, 11830
12779, -29, -897, -439, -5600, 33390, 12390
12799, -30, -904, -448, -10710, 33390, 14630
12819, -31, -901, -451, -7700, 32340, 17780
12839, -32, -893, -442, 2730, 32200, 20650
12859, -31, -889, -436, 11270, 32830, 22260
12879, -33, -889, -434, 10850, 34160, 22190
12899, -34, -891, -436, 3710, 37240, 19950
12919, -32, -887, -436, -4480, 41440, 16240
12939, -32, -889, -437, -7980, 44590, 13230
12959, -31, -890, -436, -5950, 43890, 13300
12979, -33, -892, -435, -1400, 38920, 16380
12999, -35, -893, -438, 2590, 32970, 19670
13019, -34, -893, -442, 5110, 30030, 19950
13039, -34, -892, -437, 7140, 30870, 17010
13059, -37, -891, -430, 6300, 33110, 12810
13079, -36, -892, -433, -840, 34020, 8540
13099, -33, -894, -439, -9170, 32130, 5810
13119, -33, -895, -439, -9590, 28000, 5320
13139, -35, -893, -438, -1750, 22260, 6440
13159, -35, -893, -435, 7280, 15610, 8330
13179, -35, -893, -433, 9870, 10150, 8610
13199, -37, -896, -438, 4620, 8190, 5320
13219, -35, -893, -436, -2730, 9800, -1120
13239, -35, -882, -431, -5180, 11340, -6930
13259, -34, -879, -426, -3640, 8120, -8330
13279, -35, -884, -431, -2800, -140, -5880
13299, -33, -897, -441, -1960, -9660, -2730
13319, -37, -902, -443, 2730, -15470, -1820
13339, -36, -900, -439, 6230, -14420, -6160
13359, -36, -895, -434, 3010, -10500, -13580
13379, -33, -892, -433, -3500, -9590, -18480
13399, -34, -896, -439, -8050, -13930, -18760
13419, -33, -902, -445, -5810, -21630, -15330
13439, -32, -904, -441, 490, -28700, -11550
13459, -33, -899, -442, 1960, -31710, -11690
13479, -34, -897, -442, -630, -31710, -14770
13499, -34, -894, -439, 140, -30800, -17290
13519, -33, -888, -435, 1470, -29610, -19670
13539, -32, -884, -430, 490, -29400, -20790
13559, -32, -879, -429, -3080, -31010, -20020
13579, -31, -878, -435, -7630, -33740, -18340
13599, -32, -879, -435, -5390, -36890, -15190
13619, -32, -881, -433, 3150, -38640, -12110
13639, -33, -889, -431, 7560, -37310, -11550
13659, -31, -896, -440, 1960, -32200, -14560
13679, -29, -900, -445, -9100, -26040, -18690
13699, -29, -898, -445, -13160, -21630, -20580
13719, -28, -896, -439, -5810, -22260, -16940
13739, -30, -895, -438, 4270, -27090, -9380
13759, -29, -896, -440, 6160, -31430, -2800
13779, -31, -897, -445, 840, -30100, -1260
13799, -30, -888, -441, -2870, -23240, -3640
13819, -30, -879, -431, -910, -14280, -6930
13839, -29, -876, -424, 1260, -8470, -7350
13859, -30, -889, -438, -1470, -6790, -4900
13879, -28, -897, -447, -6090, -6650, -1260
13899, -29, -897, -444, -3780, -5250, 1890
13919, -29, -895, -435, 5110, -3080, 5530
13939, -29, -901, -443, 7070, -490, 7840
13959, -31, -901, -446, -980, 2870, 8190
13979, -28, -895, -447, -8610, 8470, 6860
13999, -29, -881, -437, -8820, 14350, 5250
14019, -29, -871, -425, 1400, 17780, 6860
14039, -30, -873, -423, 11200, 16170, 12670
14059, -30, -887, -435, 9030, 13650, 17920
14079, -31, -901, -447, -1260, 15050, 19110
14099, -31, -906, -450, -7770, 21840, 16030
14119, -30, -905, -446, -7490, 30800, 10990
14139, -30, -902, -440, -2660, 35910, 8890
14159, -32, -899, -442, 1190, 34230, 11760
14179, -31, -892, -441, 1190, 29750, 16380
14199, -33, -887, -437, 1540, 25970, 20090
14219, -34, -883, -431, 4970, 24360, 22400
14239, -34, -879, -429, 5880, 25690, 21980
14259, -36, -879, -432, 630, 28980, 18690
14279, -34, -884, -437, -6230, 33740, 13650
14299, -32, -887, -437, -8750, 38500, 8400
14319, -32, -892, -433, -2520, 38920, 7350
14339, -33, -897, -434, 5950, 33180, 11270
14359, -35, -905, -441, 6860, 24780, 16100
14379, -34, -910, -450, 1050, 19390, 17710
14399, -33, -909, -447, -4550, 20090, 14000
14419, -34, -898, -438, -4760, 24570, 7350
14439, -36, -889, -432, -700, 26040, 3010
14459, -35, -881, -431, 2310, 22050, 2800
14479, -33, -877, -429, 910, 15890, 3710
14499, -35, -878, -429, 4760, 6860, 4760
14519, -36, -885, -430, 6160, 4480, 3780
14539, -36, -897, -435, 770, 3290, 910
14559, -37, -904, -444, -8680, 4760, -4970
14579, -33, -904, -448, -13510, 7490, -11900
14599, -31, -898, -442, -5040, 5950, -14070
14619, -34, -892, -432, 9240, -3150, -9170
14639, -35, -892, -429, 12880, -15540, -2730
14659, -35, -895, -438, 4480, -23380, -910
14679, -35, -896, -442, -4620, -22050, -6020
14699, -35, -891, -440, -7140, -14980, -14910
14719, -34, -881, -428, -3290, -10990, -20580
14739, -34, -879, -424, -980, -14280, -20300
14759, -32, -888, -437, -4200, -21490, -17710
14779, -32, -896, -444, -3430, -27230, -15330
14799, -31, -894, -439, 6020, -30100, -13580
14819, -35, -890, -430, 11340, -31500, -12880
14839, -32, -899, -437, 2380, -32480, -13930
14859, -33, -907, -452, -12670, -31150, -17220
14879, -30, -903, -453, -17570, -26250, -22260
14899, -30, -885, -438, -6790, -22470, -24500
14919, -31, -872, -424, 7490, -25620, -20650
14939, -32, -872, -424, 12600, -34790, -12320
14959, -32, -884, -435, 7000, -41860, -6090
14979, -32, -891, -443, -1680, -39550, -7070
14999, -31, -887, -436, -5530, -28630, -14000
15019, -30, -885, -432, -6090, -18620, -19530
15039, -28, -893, -440, -8960, -16590, -19390
15059, -28, -906, -454, -10080, -20440, -14350
15079, -30, -914, -455, -2310, -23590, -8750
15099, -29, -904, -444, 9310, -22470, -5810
15119, -29, -891, -431, 13160, -20300, -4130
15139, -28, -884, -432, 3920, -20090, -1820
15159, -29, -886, -444, -9870, -19250, -560
15179, -30, -881, -439, -13160, -13790, -1890
15199, -29, -876, -432, -3850, -5110, -4270
15219, -28, -875, -426, 5040, 910, -4690
15239, -29, -884, -433, 6020, 140, -420
15259, -29, -895, -443, 2520, -3710, 6230
15279, -31, -904, -447, -840, -3080, 9380
15299, -28, -904, -445, -1470, 3640, 7910
15319, -30, -903, -443, -2450, 11340, 5530
15339, -27, -905, -448, -7140, 14840, 5320
15359, -30, -904, -450, -8190, 14560, 7980
15379, -28, -893, -442, -350, 14070, 11690
15399, -30, -880, -428, 9450, 15820, 13860
15419, -32, -872, -421, 11900, 17500, 15540
15439, -32, -872, -428, 4550, 17640, 17360
15459, -32, -880, -438, -6440, 18830, 17850
15479, -32, -887, -441, -10430, 23310, 15820
15499, -33, -893, -439, -5390, 29890, 12530
15519, -30, -899, -438, 630, 34790, 10150
15539, -32, -909, -443, 2100, 33950, 11410
15559, -33, -913, -450, 980, 29050, 15400
15579, -31, -905, -446, 490, 25410, 18340
15599, -32, -889, -434, 1610, 25130, 18480
15619, -33, -881, -429, 770, 25970, 17150
15639, -34, -878, -433, -2940, 26180, 15540
15659, -34, -876, -433, -3920, 25340, 14630
15679, -34, -874, -429, 350, 25550, 13300
15699, -33, -876, -427, 5040, 27230, 10780
15719, -33, -884, -429, 5530, 27790, 8540
15739, -33, -898, -439, 1190, 25340, 8400
15759, -34, -911, -450, -5670, 21700, 8540
15779, -32, -918, -454, -8750, 19110, 7420
15799, -33, -912, -448, -5180, 18270, 5250
15819, -33, -901, -440, 420, 17500, 2730
15839, -34, -893, -436, 4200, 13860, 2100
15859, -34, -888, -434, 5250, 7840, 3220
15879, -35, -883, -430, 4270, 3010, 3430
15899, -35, -876, -425, 2450, 980, 1400
15919, -37, -874, -426, -420, 1050, -2100
15939, -34, -881, -433, -4970, 770, -5530
15959, -32, -888, -438, -7350, -1260, -7700
15979, -36, -894, -438, -3150, -4060, -8680
15999, -34, -901, -439, 3850, -6160, -9730
16019, -33, -904, -440, 6510, -7980, -11200
16039, -33, -903, -442, 2730, -11200, -12040
16059, -34, -900, -444, -3710, -16100, -11690
16079, -32, -897, -444, -7070, -20440, -11340
16099, -32, -891, -438, -4830, -22330, -12390
16119, -33, -884, -433, 490, -22260, -14630
16139, -34, -884, -431, 4410, -22680, -16170
16159, -32, -889, -434, 3920, -24710, -16450
16179, -33, -890, -437, 980, -26670, -16520
16199, -32, -890, -436, -1260, -27230, -17080
16219, -32, -888, -434, -3430, -26670, -18060
16239, -31, -890, -438, -5810, -26810, -18410
16259, -30, -892, -442, -2100, -31010, -14770
16279, -30, -892, -441, 3010, -30870, -14000
16299, -32, -892, -437, 6090, -28490, -14770
16319, -30, -892, -433, 3570, -25270, -16100
16339, -30, -894, -439, -3780, -23520, -16380
16359, -30, -895, -444, -9030, -23800, -14700
16379, -30, -894, -442, -7420, -24430, -11900
16399, -30, -893, -441, -1190, -24220, -9240
16419, -32, -894, -440, 3710, -22890, -7420
16439, -31, -893, -438, 4130, -20230, -6860
16459, -31, -888, -436, 1960, -16730, -7000
16479, -29, -879, -432, -280, -13160, -6720
16499, -29, -876, -428, -1820, -10640, -5250
16519, -28, -883, -434, -3220, -9520, -2450
16539, -30, -894, -441, -4550, -8820, 490
16559, -29, -900, -447, -3360, -6510, 2170
16579, -31, -900, -446, 1120, -2030, 2380
16599, -29, -896, -439, 3850, 3150, 1820
16619, -27, -895, -438, 2240, 6440, 2310
16639, -29, -893, -440, -1400, 6930, 5040
16659, -28, -895, -443, -3360, 6370, 8610
16679, -29, -893, -441, -1470, 7140, 11410
16699, -31, -885, -435, 420, 9730, 12600
16719, -30, -878, -433, -210, 13160, 12460
16739, -32, -882, -436, -490, 16590, 12250
16759, -29, -886, -438, 700, 19810, 12250
16779, -30, -894, -441, 1960, 22680, 12180
16799, -33, -896, -437, 2030, 24850, 12810
16819, -30, -901, -443, -2730, 25830, 13300
16839, -30, -900, -444, -7000, 25550, 14210
16859, -32, -898, -444, -4200, 24360, 16590
16879, -33, -897, -442, 770, 23170, 18270
16899, -32, -889, -436, 4340, 23730, 17990
16919, -32, -884, -431, 4830, 25620, 16520
16939, -34, -878, -429, 1330, 27790, 14140
16959, -33, -877, -429, -2100, 28770, 12670
16979, -34, -884, -433, -2520, 27090, 13510
16999, -32, -894, -440, -3010, 24710, 14350
17019, -33, -906, -445, -2800, 23660, 13650
17039, -32, -920, -454, -1400, 24010, 11620
17059, -32, -923, -455, -770, 25270, 8190
17079, -32, -913, -447, 350, 25340, 5530
17099, -33, -892, -436, 1400, 21840, 5600
17119, -32, -872, -426, -280, 16240, 6790
17139, -34, -856, -419, -910, 9660, 8960
17159, -34, -850, -418, 2800, 3780, 11620
17179, -35, -859, -419, 4970, 2030, 10990
17199, -35, -875, -428, 3010, 5110, 5880
17219, -35, -892, -437, -1330, 11200, -1890
17239, -31, -905, -442, -6440, 17710, -10290
17259, -31, -919, -447, -7840, 17920, -13650
17279, -30, -926, -452, -4060, 9380, -9660
17299, -33, -928, -457, -1050, -3290, -2800
17319, -34, -919, -455, 630, -13790, 1890
17339, -35, -899, -441, 3430, -17710, 1540
17359, -35, -875, -427, 4620, -15260, -4060
17379, -34, -860, -418, 3990, -11830, -10150
17399, -34, -858, -418, 1750, -10710, -13860
17419, -33, -864, -425, -2590, -11620, -15610
17439, -32, -877, -429, -5040, -14210, -15610
17459, -32, -889, -437, -3010, -17500, -14140
17479, -33, -904, -444, -420, -20510, -13090
17499, -33, -915, -448, 210, -22820, -12810
17519, -31, -920, -453, -1400, -23240, -14210
17539, -30, -914, -452, -4270, -21280, -17850
17559, -30, -903, -441, -3220, -19880, -20370
17579, -32, -888, -432, 770, -22120, -19180
17599, -31, -883, -432, 1820, -27790, -15190
17619, -31, -879, -433, 1120, -33460, -10920
17639, -32, -876, -432, 980, -34930, -9450
17659, -32, -879, -433, 560, -30940, -12180
17679, -31, -887, -433, -70, -24850, -16240
17699, -29, -893, -439, -2450, -19950, -19110
17719, -30, -895, -441, -6230, -17920, -19880
17739, -30, -896, -442, -6090, -18970, -17360
17759, -27, -896, -441, -1330, -22190, -12460
17779, -30, -894, -438, 3920, -25690, -7070
17799, -32, -888, -437, 5530, -27440, -3150
17819, -29, -883, -438, 1120, -25130, -3080
17839, -30, -874, -433, -4270, -18200, -6720
17859, -29, -875, -428, -3920, -10290, -10010
17879, -28, -880, -432, -630, -5880, -9940
17899, -29, -895, -438, 420, -6370, -6230
17919, -31, -908, -449, 420, -9520, -280
17939, -28, -915, -454, -490, -10290, 3780
17959, -28, -911, -450, -1750, -6370, 3640
17979, -29, -905, -447, -1820, -350, 1750
17999, -28, -898, -444, -2940, 6230, 1330
18019, -30, -891, -439, 280, 5460, 5040
18039, -30, -887, -436, 4270, 4830, 8750
18059, -30, -880, -431, 5460, 5460, 11340
18079, -33, -878, -430, 2310, 6790, 12880
18099, -31, -877, -433, -3850, 10010, 12250
18119, -30, -881, -437, -6160, 15330, 10010
18139, -32, -883, -437, -2170, 20440, 8470
18159, -32, -888, -436, 1820, 23660, 8120
18179, -30, -897, -436, 1890, 23100, 10150
18199, -31, -902, -442, -350, 20020, 13790
18219, -33, -902, -449, -2660, 18270, 16100
18239, -30, -898, -444, -1820, 19040, 16170
18259, -32, -894, -438, 770, 21070, 15330
18279, -32, -891, -438, 210, 23030, 13790
18299, -32, -890, -441, -2100, 23870, 12460
18319, -33, -888, -439, -1400, 24220, 11690
18339, -31, -881, -432, 1400, 24360, 11200
18359, -31, -879, -428, 3080, 22960, 11970
18379, -33, -886, -432, 840, 19880, 13440
18399, -33, -893, -441, -4200, 17850, 13370
18419, -32, -898, -444, -5180, 18200, 11410
18439, -33, -898, -443, -1540, 20650, 7980
18459, -33, -898, -438, 770, 22470, 4550
18479, -32, -899, -439, 350, 20580, 3570
18499, -33, -897, -440, -490, 15330, 5250
18519, -33, -896, -439, -700, 10220, 6790
18539, -33, -895, -437, 560, 7350, 6650
18559, -34, -891, -435, 560, 6650, 4480
18579, -34, -885, -434, -1750, 6650, 1190
18599, -33, -882, -431, -2660, 5810, -1400
18619, -35, -878, -431, -1050, 4270, -3150
18639, -34, -875, -428, 1960, 2520, -4270
18659, -35, -880, -426, 3850, -490, -4130
18679, -32, -890, -435, 1820, -4200, -3780
18699, -33, -901, -446, -2870, -6860, -4690
18719, -33, -909, -449, -5180, -7490, -7000
18739, -33, -907, -447, -4060, -6510, -10290
18759, -31, -899, -441, -1750, -6510, -12950
18779, -32, -891, -436, 420, -10010, -12600
18799, -33, -887, -435, 1680, -15680, -10360
18819, -33, -882, -434, 2940, -20510, -8470
18839, -34, -879, -427, 4690, -22610, -8190
18859, -32, -875, -428, 2870, -21980, -10080
18879, -32, -878, -431, -3290, -20160, -13300
18899, -31, -891, -441, -7700, -18410, -16030
18919, -32, -897, -444, -6860, -16870, -18060
18939, -31, -902, -441, -1190, -16730, -18270
18959, -31, -906, -440, 4760, -19320, -15960
18979, -29, -911, -448, 3780, -23380, -12810
18999, -30, -914, -452, -3080, -25690, -11690
19019, -32, -908, -449, -6020, -25060, -12040
19039, -31, -901, -442, -2940, -22260, -13440
19059, -30, -894, -440, -210, -20230, -14140
19079, -29, -890, -437, -70, -20300, -13230
19099, -29, -885, -436, -1400, -20930, -11480
19119, -29, -875, -431, -1120, -20860, -10080
19139, -29, -869, -423, 2660, -19880, -8540
19159, -32, -868, -423, 4760, -18620, -6860
19179, -31, -874, -428, -140, -17010, -6020
19199, -28, -881, -440, -6860, -14210, -6230
19219, -29, -890, -441, -8120, -10010, -6930
19239, -28, -898, -441, -3010, -5670, -7140
19259, -29, -907, -444, 3010, -3570, -5320
19279, -29, -918, -451, 3430, -4060, -2030
19299, -27, -919, -457, -1400, -4620, 560
19319, -28, -911, -452, -4480, -3360, 1750
19339, -28, -898, -441, -2660, -1050, 2520
19359, -30, -888, -436, 280, 490, 3850
19379, -30, -877, -434, 1120, 700, 6090
19399, -31, -870, -429, 560, 1540, 7560
19419, -30, -862, -423, 1960, 4690, 7630
19439, -30, -860, -419, 4900, 8750, 7560
19459, -31, -871, -424, 3850, 11690, 8050
19479, -30, -888, -437, -1890, 12950, 9170
19499, -29, -904, -451, -6580, 14490, 10010
19519, -30, -920, -456, -6300, 17570, 9660
19539, -28, -925, -454, -2730, 21000, 8890
19559, -31, -919, -451, -70, 22260, 9100
19579, -30, -908, -447, 420, 20160, 11340
19599, -31, -892, -438, 560, 17150, 14140
19619, -32, -876, -430, 2870, 15470, 16170
19639, -34, -867, -424, 4760, 14980, 17220
19659, -32, -862, -424, 2100, 16380, 16310
19679, -33, -862, -424, -1890, 18620, 14280
19699, -32, -863, -425, -1890, 21210, 12460
19719, -34, -875, -428, 140, 23800, 10570
19739, -33, -892, -437, 700, 24990, 9520
19759, -34, -912, -450, -3430, 22610, 9870
19779, -32, -923, -457, -4270, 21000, 9660
19799, -33, -924, -455, -2030, 19670, 9240
19819, -32, -915, -450, -980, 18410, 8190
19839, -32, -903, -445, -700, 16170, 7420
19859, -33, -891, -438, 1680, 12180, 8540
19879, -33, -880, -431, 4200, 9030, 8960
19899, -34, -873, -425, 4480, 7000, 8540
19919, -36, -870, -424, 1400, 7210, 6020
19939, -32, -875, -430, -3780, 9030, 1890
19959, -35, -888, -436, -5110, 10360, -1540
19979, -34, -898, -440, -2940, 10150, -3500
19999, -32, -905, -442, -1400, 8190, -4550
20019, -32, -909, -445, -980, 3640, -3780
20039, -33, -911, -446, -910, -1330, -2870
20059, -32, -906, -446, 0, -5250, -2590
20079, -35, -893, -437, 2380, -7560, -3360
20099, -33, -884, -432, 1540, -8260, -5530
20119, -34, -875, -428, -2170, -8750, -8330
20139, -34, -876, -429, -2520, -10220, -9520
20159, -33, -878, -430, -140, -12250, -9870
20179, -32, -884, -431, 1330, -13300, -10920
20199, -35, -892, -436, 280, -13860, -12250
20219, -32, -903, -444, -3640, -14140, -14070
20239, -30, -907, -447, -6090, -14980, -15400
20259, -33, -909, -446, -2590, -17360, -14700
20279, -31, -900, -443, 980, -19950, -13720
20299, -33, -890, -434, 1050, -22190, -13300
20319, -33, -878, -432, 70, -24430, -12460
20339, -32, -871, -428, -210, -25410, -12250
20359, -32, -864, -423, 1540, -25270, -12390
20379, -33, -862, -421, 3570, -24570, -12320
20399, -32, -866, -423, 700, -22820, -13160
20419, -32, -883, -434, -5460, -20440, -14770
20439, -32, -902, -447, -7560, -18130, -15610
20459, -28, -918, -454, -4200, -16100, -15750
20479, -28, -925, -452, 1470, -15680, -14420
20499, -31, -925, -453, 3430, -17570, -11760
20519, -29, -918, -455, -2100, -19740, -9590
20539, -30, -905, -451, -6510, -20650, -8260
20559, -29, -883, -436, -2100, -20720, -6230
20579, -32, -870, -427, 4480, -19950, -4480
20599, -30, -870, -424, 6020, -18410, -3430
20619, -32, -874, -430, 2310, -15400, -3570
20639, -30, -880, -435, -2590, -10220, -5320
20659, -30, -892, -439, -4060, -4900, -6650
20679, -29, -904, -442, -3220, -2240, -5670
20699, -29, -910, -448, -4060, -1960, -3080
20719, -28, -908, -451, -5880, -2590, 0
20739, -28, -893, -443, -5250, -2520, 2380
20759, -28, -862, -424, 490, -1260, 4410
20779, -31, -843, -410, 8540, -630, 7630
20799, -31, -844, -413, 9800, -980, 11480
20819, -30, -859, -423, 2590, 1260, 12460
20839, -32, -881, -434, -3500, 8330, 10290
20859, -30, -904, -446, -6790, 17360, 6370
20879, -27, -932, -462, -9100, 24920, 2660
20899, -29, -952, -472, -7350, 26670, 3360
20919, -28, -961, -473, -1610, 23310, 8120
20939, -28, -949, -468, 1330, 18830, 12670
20959, -31, -927, -458, 1120, 16100, 14980
20979, -32, -902, -445, 1890, 13790, 16940
20999, -32, -880, -432, 3850, 13230, 17710
21019, -33, -863, -422, 4830, 14000, 17360
21039, -35, -850, -418, 3500, 17220, 15190
21059, -32, -841, -413, -630, 22470, 11270
21079, -33, -838, -408, -1820, 26180, 8890
21099, -31, -848, -415, 980, 25620, 10640
21119, -33, -872, -427, 2590, 23030, 13650
21139, -32, -897, -440, 840, 21420, 15190
21159, -33, -919, -453, -2380, 23730, 13090
21179, -32, -933, -460, -6440, 28420, 8190
21199, -30, -934, -460, -6650, 30590, 4620
21219, -31, -924, -452, -2030, 26950, 5810
21239, -33, -904, -444, 1820, 19810, 9170
21259, -36, -881, -432, 3710, 12250, 12600
21279, -34, -864, -423, 5390, 7420, 14140
21299, -33, -854, -419, 5250, 6020, 12880
21319, -35, -862, -422, 4900, 7000, 9870
21339, -34, -879, -429, 3500, 9800, 5880
21359, -33, -898, -440, -1750, 14980, -770
21379, -31, -914, -447, -7210, 19110, -6860
21399, -30, -923, -452, -7980, 17920, -8610
21419, -32, -924, -454, -4970, 10080, -5110
21439, -32, -925, -455, -70, -1260, 910
21459, -34, -914, -451, 3080, -9520, 4270
21479, -35, -899, -440, 3080, -10640, 1470
21499, -35, -879, -427, 3010, -7910, -4200
21519, -33, -861, -419, -910, -7280, -11060
21539, -35, -854, -416, -3500, -10850, -10710
21559, -35, -863, -422, -4130, -14490, -9660
21579, -34, -877, -432, -2800, -16520, -9660
21599, -35, -897, -439, 770, -17500, -10150
21619, -33, -913, -446, 1120, -16800, -12460
21639, -34, -927, -457, -4130, -14490, -16940
21659, -30, -930, -458, -8260, -12880, -20650
21679, -29, -919, -453, -7700, -14560, -21070
21699, -29, -903, -446, -3010, -21560, -16940
21719, -32, -891, -437, 3290, -31640, -9660
21739, -35, -881, -433, 6440, -38010, -5320
21759, -33, -876, -432, 4900, -36190, -7420
21779, -32, -872, -426, 420, -28280, -14210
21799, -32, -861, -419, -4900, -19810, -21000
21819, -30, -857, -421, -8890, -17360, -22610
21839, -31, -864, -427, -9100, -20860, -19040
21859, -30, -878, -434, -3570, -25130, -13790
21879, -31, -899, -442, 4270, -26880, -9870
21899, -28, -917, -448, 6020, -25760, -8750
21919, -29, -932, -460, -700, -22820, -10360
21939, -29, -932, -463, -8470, -19250, -12810
21959, -29, -908, -451, -9940, -15330, -15050
21979, -29, -885, -435, -5250, -14140, -14140
21999, -29, -867, -426, 1610, -18130, -8540
22019, -30, -859, -423, 7700, -24080, -910
22039, -32, -859, -421, 10430, -26390, 4060
22059, -33, -862, -423, 8330, -21420, 3150
22079, -31, -874, -426, 1470, -10290, -2660
22099, -30, -888, -437, -8820, 1050, -9100
22119, -27, -904, -447, -15400, 6860, -11130
22139, -26, -914, -456, -13020, 6300, -7490
22159, -25, -915, -455, -2450, 1680, -280
22179, -29, -908, -446, 10780, -3360, 7700
22199, -30, -900, -440, 15960, -6160, 13300
22219, -30, -890, -437, 8960, -4620, 14140
22239, -30, -876, -436, -1890, 1960, 10640
22259, -29, -864, -430, -7910, 11270, 5460
22279, -29, -860, -424, -7420, 18340, 2450
22299, -29, -867, -426, -1540, 19810, 4410
22319, -29, -880, -432, 5040, 16380, 10290
22339, -31, -898, -441, 7700, 13090, 15610
22359, -31, -910, -447, 5810, 14210, 16940
22379, -31, -918, -451, 770, 19390, 14280
22399, -32, -918, -454, -5600, 25410, 10150
22419, -27, -911, -453, -9100, 28560, 7980
22439, -30, -900, -444, -6650, 27440, 9240
22459, -30, -887, -437, 630, 23660, 12880
22479, -33, -879, -429, 8680, 18900, 17500
22499, -33, -875, -427, 12250, 15260, 20930
22519, -34, -878, -429, 8260, 15330, 20650
22539, -34, -884, -435, -1120, 20370, 15680
22559, -33, -888, -438, -9590, 28420, 7910
22579, -32, -890, -438, -11900, 34580, 1820
22599, -31, -895, -438, -7630, 33460, 1470
22619, -32, -896, -438, 1120, 24710, 7420
22639, -34, -895, -437, 8750, 13720, 15120
22659, -35, -889, -436, 9240, 7700, 18200
22679, -34, -884, -431, 3500, 9170, 14420
22699, -34, -875, -427, -3080, 14630, 7420
22719, -33, -877, -433, -7770, 19180, 1120
22739, -32, -887, -434, -9170, 19670, -2030
22759, -31, -898, -441, -4760, 16660, -1680
22779, -33, -903, -441, 1120, 11830, 0
22799, -33, -910, -444, 5530, 6300, 2170
22819, -33, -915, -448, 5600, 1260, 3640
22839, -32, -910, -446, 630, -1260, 2310
22859, -35, -898, -441, -4690, -420, -1610
22879, -32, -887, -437, -7910, 2030, -6790
22899, -30, -881, -431, -7630, 2380, -10290
22919, -33, -878, -429, -770, -2170, -9030
22939, -33, -888, -432, 7210, -9660, -4760
22959, -34, -894, -436, 8190, -14700, -3080
22979, -33, -897, -439, 2940, -14420, -5810
22999, -33, -895, -441, -5110, -10640, -11410
23019, -30, -894, -441, -11550, -7700, -16240
23039, -32, -892, -440, -10570, -9450, -16800
23059, -32, -891, -438, -3500, -15120, -13510
23079, -31, -890, -438, 3920, -20510, -10290
23099, -34, -888, -434, 8050, -23590, -8750
23119, -32, -887, -434, 6720, -23660, -9590
23139, -32, -887, -435, 0, -21700, -12250
23159, -33, -889, -440, -7140, -19390, -14910
23179, -30, -891, -442, -10640, -17850, -16450
23199, -30, -896, -443, -8260, -17710, -16380
23219, -30, -899, -441, -1610, -19670, -14070
23239, -30, -897, -440, 4830, -22260, -10920
23259, -31, -892, -437, 6860, -23170, -8610
23279, -32, -889, -438, -2100, -20440, -9870
23299, -31, -887, -438, -6720, -17290, -11130
23319, -30, -889, -441, -7490, -15470, -10920
23339, -31, -889, -441, -4340, -15050, -9240
23359, -31, -887, -438, 1120, -14980, -6860
23379, -30, -886, -436, 5530, -14490, -4690
23399, -30, -888, -434, 5950, -13300, -3080
23419, -31, -891, -436, 2380, -11340, -2170
23439, -30, -893, -441, -2940, -8680, -1890
23459, -29, -894, -443, -7070, -5250, -2310
23479, -29, -895, -447, -6720, -1960, -2240
23499, -28, -893, -441, -1260, -140, -560
23519, -30, -892, -439, 4340, -70, 2520
23539, -30, -890, -440, 6090, -630, 5740
23559, -29, -891, -438, 4480, 350, 7700
23579, -30, -890, -439, 560, 3710, 7490
23599, -29, -889, -438, -2940, 8190, 6230
23619, -29, -889, -437, -4270, 11620, 5950
23639, -30, -889, -439, -3500, 12950, 7070
23659, -30, -888, -438, -350, 13090, 9100
23679, -30, -885, -435, 3710, 13090, 11270
23699, -29, -885, -434, 5950, 13720, 12810
23719, -30, -895, -439, 4480, 15050, 13580
23739, -31, -903, -443, -980, 17290, 12950
23759, -30, -900, -446, -7000, 20650, 10640
23779, -30, -891, -438, -6860, 23030, 9310
23799, -32, -888, -439, -1960, 23030, 10150
23819, -31, -888, -437, 3290, 20090, 12810
23839, -33, -890, -436, 8190, 16520, 16450
23859, -32, -894, -438, 6300, 15540, 16870
23879, -33, -894, -439, -490, 18690, 13370
23899, -33, -890, -436, -5180, 22750, 9100
23919, -31, -891, -438, -7140, 24710, 6370
23939, -33, -891, -440, -5880, 22750, 6300
23959, -32, -891, -439, 70, 18060, 9100
23979, -32, -889, -437, 5110, 13860, 11060
23999, -34, -886, -432, 5950, 12250, 10500
24019, -34, -886, -431, 4410, 11760, 8960
24039, -33, -888, -435, -700, 11830, 6510
24059, -34, -891, -436, -6160, 12250, 3360
24079, -34, -894, -440, -6720, 12180, 1050
24099, -32, -897, -441, -4760, 11690, -980
24119, -32, -899, -442, -1540, 9240, -1750
24139, -32, -903, -441, 3500, 4060, 0
24159, -33, -905, -444, 5530, -700, 1260
24179, -33, -902, -442, 2450, -2520, -280
24199, -33, -895, -439, -2240, -2100, -3570
24219, -33, -886, -434, -7140, -1330, -7350
24239, -32, -880, -435, -8260, -3010, -9030
24259, -33, -880, -431, -2170, -7630, -7420
24279, -34, -882, -432, 4760, -11760, -5950
24299, -32, -885, -432, 6440, -13370, -6720
24319, -33, -888, -434, 2730, -13090, -9100
24339, -31, -893, -440, -3920, -11760, -12390
24359, -33, -899, -443, -7980, -11340, -14630
24379, -33, -904, -446, -7280, -12880, -14700
24399, -31, -906, -448, -4970, -15120, -14140
24419, -32, -904, -445, -1540, -17920, -13160
24439, -31, -898, -442, 3010, -20790, -11620
24459, -32, -889, -436, 4550, -22400, -11130
24479, -33, -880, -430, 2660, -22610, -11620
24499, -31, -877, -431, -1330, -21910, -12530
24519, -30, -876, -433, -5810, -20370, -14000
24539, -30, -879, -434, -6300, -19600, -14280
24559, -31, -885, -436, -2660, -19740, -13160
24579, -30, -894, -439, 0, -19600, -12320
24599, -29, -902, -441, 1400, -18760, -11900
24619, -27, -904, -445, 1050, -17290, -11690
24639, -30, -902, -443, -2030, -15540, -11970
24659, -31, -901, -444, -4130, -15050, -10990
24679, -28, -897, -444, -3920, -15890, -8540
24699, -30, -889, -441, -2450, -16520, -6230
24719, -30, -884, -435, 1610, -15890, -4340
24739, -29, -879, -433, 4130, -14070, -3500
24759, -30, -880, -434, 2520, -10850, -3850
24779, -30, -884, -431, 420, -7770, -3850
24799, -29, -887, -436, -1330, -5180, -3290
24819, -29, -892, -442, -3570, -2870, -2590
24839, -28, -902, -446, -3780, -1470, -910
24859, -30, -908, -450, -2240, -350, 1120
24879, -29, -905, -446, -70, 1120, 2520
24899, -29, -898, -441, 2870, 2380, 4200
24919, -29, -888, -438, 2940, 3990, 5250
24939, -28, -883, -436, 210, 5670, 5880
24959, -30, -881, -435, -630, 6790, 7280
24979, -31, -881, -433, 350, 7840, 8820
24999, -31, -882, -432, 1470, 9240, 9940
25019, -31, -883, -435, -630, 13510, 10080
25039, -30, -890, -440, -2170, 16450, 9030
25059, -30, -898, -443, 0, 18270, 9240
25079, -29, -903, -442, 1890, 18830, 10150
25099, -31, -906, -445, 350, 18270, 11270
25119, -30, -904, -447, -2240, 17430, 12110
25139, -31, -901, -445, -2380, 17500, 12320
25159, -31, -891, -438, 770, 17360, 12740
25179, -32, -883, -431, 4200, 16310, 13790
25199, -33, -877, -431, 3430, 15400, 14070
25219, -33, -879, -432, 280, 15960, 12810
25239, -32, -879, -431, -910, 18130, 10570
25259, -32, -885, -433, -840, 20230, 8260
25279, -31, -891, -436, -1890, 20230, 7210
25299, -32, -900, -443, -3430, 18060, 7420
25319, -31, -908, -449, -3220, 15680, 7770
25339, -31, -911, -449, -770, 14140, 7280
25359, -32, -909, -444, 2170, 13020, 6510
25379, -32, -899, -441, 2450, 10990, 5950
25399, -31, -891, -437, 70, 8260, 5600
25419, -35, -879, -432, -2310, 5950, 4830
25439, -32, -871, -429, -2310, 4830, 3290
25459, -33, -865, -424, 0, 4270, 1820
25479, -35, -868, -423, 2520, 3080, 1050
25499, -34, -881, -432, 1610, 1820, 0
25519, -34, -897, -440, -2030, 1890, -2520
25539, -31, -907, -446, -4200, 3290, -5740
25559, -31, -915, -449, -4900, 3640, -8330
25579, -32, -917, -451, -4900, 910, -8680
25599, -32, -914, -448, -3570, -4900, -6650
25619, -32, -907, -447, -910, -10500, -4480
25639, -31, -895, -441, 2170, -13230, -4480
25659, -32, -883, -434, 4410, -13790, -6020
25679, -33, -873, -425, 3220, -13580, -8190
25699, -32, -866, -424, -1190, -13370, -10360
25719, -32, -870, -427, -5110, -13510, -11900
25739, -32, -874, -429, -5670, -13300, -13020
25759, -33, -886, -434, -3290, -13440, -13510
25779, -31, -898, -440, -420, -14770, -12880
25799, -32, -909, -446, 140, -16310, -12250
25819, -32, -916, -452, -1960, -17080, -12600
25839, -29, -915, -452, -3710, -16450, -13860
25859, -30, -902, -443, -3430, -15540, -14980
25879, -30, -891, -437, -2100, -16940, -14000
25899, -29, -884, -433, -770, -21000, -10640
25919, -31, -878, -432, 770, -24360, -7630
25939, -30, -874, -432, 2730, -24220, -6930
25959, -31, -870, -425, 3150, -20160, -9030
25979, -30, -874, -428, -210, -14910, -12180
25999, -28, -884, -435, -5110, -11760, -13580
26019, -29, -897, -445, -7490, -10990, -12670
26039, -28, -909, -450, -5250, -11270, -10570
26059, -28, -916, -449, 0, -11620, -7910
26079, -29, -915, -451, 2800, -12110, -5460
26099, -29, -910, -450, 490, -12670, -3780
26119, -30, -895, -443, -1960, -12110, -2940
26139, -29, -875, -431, -280, -9870, -2730
26159, -30, -865, -424, 2450, -7420, -2380
26179, -29, -865, -426, 2450, -6160, -980
26199, -31, -873, -433, 210, -5600, 910
26219, -30, -881, -435, -840, -3850, 1960
26239, -30, -888, -436, 630, 70, 1750
26259, -30, -901, -442, 560, 4550, 770
26279, -30, -912, -449, -3010, 7420, 560
26299, -29, -917, -455, -5530, 7980, 1890
26319, -28, -916, -452, -3080, 7210, 4550
26339, -30, -907, -444, 2030, 6790, 7000
26359, -31, -893, -439, 5390, 6720, 9030
26379, -30, -882, -433, 3850, 6580, 10500
26399, -32, -871, -430, 210, 7140, 11060
26419, -32, -866, -425, -280, 8890, 10990
26439, -32, -863, -424, 2100, 11970, 10430
26459, -31, -873, -427, 2380, 15190, 9450
26479, -30, -883, -436, -280, 17220, 8960
26499, -31, -898, -443, -2450, 17780, 9380
26519, -29, -911, -448, -2380, 18130, 10010
26539, -30, -916, -450, -630, 18550, 10220
26559, -31, -912, -448, 70, 19040, 10080
26579, -29, -906, -447, -1680, 18760, 9800
26599, -32, -900, -443, -2030, 16870, 10780
26619, -31, -887, -439, -420, 14420, 12390
26639, -33, -876, -430, 840, 13230, 12250
26659, -34, -872, -424, 5110, 12670, 12390
26679, -31, -870, -428, 5810, 13090, 11620
26699, -33, -876, -429, -1050, 14210, 8820
26719, -33, -887, -437, -3780, 15540, 6930
26739, -31, -896, -439, -4060, 16800, 4900
26759, -31, -904, -443, -3640, 17150, 3010
26779, -32, -914, -447, -420, 11130, 4830
26799, -31, -914, -453, -3570, 8330, 4060
26819, -33, -906, -443, -70, 6230, 4060
26839, -32, -892, -437, 2730, 4830, 3220
26859, -33, -881, -430, 1260, 3570, 1470
26879, -34, -875, -427, -350, 1120, 1190
26899, -32, -876, -431, -2310, -280, -140
26919, -32, -880, -432, -2170, 280, -2660
26939, -33, -883, -431, 770, 490, -4410
26959, -33, -885, -433, -350, -350, -5880
26979, -33, -897, -440, -4760, -1890, -7280
26999, -32, -906, -447, -5040, -4550, -7210
27019, -32, -910, -449, -1890, -6440, -7490
27039, -32, -910, -446, 700, -7700, -8330
27059, -31, -906, -443, 420, -10080, -8540
27079, -31, -897, -440, -2310, -12390, -8960
27099, -32, -886, -437, -2870, -14070, -9520
27119, -33, -876, -430, 420, -15540, -9380
27139, -32, -873, -426, 2380, -16030, -9870
27159, -33, -876, -430, -280, -16380, -10850
27179, -31, -883, -433, -3220, -16660, -11620
27199, -31, -885, -437, -3780, -15610, -12810
27219, -30, -891, -437, -2940, -14280, -14070
27239, -31, -900, -441, -1680, -14210, -14140
27259, -28, -908, -445, -1610, -15330, -13230
27279, -31, -908, -448, -2170, -17290, -11690
27299, -30, -906, -448, -1820, -18550, -10430
27319, -29, -899, -441, -1190, -18340, -10220
27339, -28, -888, -437, -350, -17710, -10150
27359, -31, -878, -432, 700, -17430, -9380
27379, -31, -874, -429, 350, -17290, -8400
27399, -31, -875, -430, -560, -16660, -7630
27419, -31, -879, -433, -700, -14630, -7490
27439, -29, -890, -438, -1050, -11690, -8120
27459, -30, -897, -439, -1540, -9240, -8260
27479, -30, -905, -445, -2240, -7910, -7350
27499, -28, -910, -449, -3220, -7560, -5880
27519, -28, -904, -448, -2800, -7140, -4410
27539, -28, -898, -441, 560, -6720, -2520
27559, -29, -889, -437, 3220, -6790, -280
27579, -30, -885, -436, 2520, -6930, 1820
27599, -31, -880, -433, 910, -5740, 2870
27619, -30, -878, -432, -350, -2450, 2380
27639, -30, -878, -431, -560, 2030, 1120
27659, -29, -888, -435, -70, 4900, 1260
27679, -30, -900, -444, -700, 5670, 2870
27699, -28, -911, -450, -2380, 6020, 4480
27719, -28, -913, -452, -1820, 7210, 5390
27739, -28, -908, -448, 280, 9310, 5600
27759, -29, -898, -442, 1540, 10570, 6160
27779, -29, -888, -436, 1540, 9450, 8260
27799, -31, -879, -433, 910, 7700, 10850
27819, -31, -872, -432, 630, 7770, 12040
27839, -30, -867, -426, 1610, 9870, 11620
27859, -30, -868, -425, 2800, 12880, 10570
27879, -31, -878, -432, 1680, 15120, 9730
27899, -31, -895, -440, -1330, 16520, 9240
27919, -30, -905, -448, -3570, 18270, 8190
27939, -30, -914, -448, -3220, 19740, 7350
27959, -30, -917, -449, -1470, 19390, 7840
27979, -31, -915, -451, -770, 16730, 9590
27999, -31, -908, -448, -980, 13370, 11410
28019, -31, -892, -441, 210, 11690, 11830
28039, -32, -878, -430, 2800, 11830, 10850
28059, -33, -868, -424, 4130, 11970, 9870
28079, -32, -865, -425, 1820, 11410, 9100
28099, -32, -869, -426, -1470, 10850, 8330
28119, -32, -877, -430, -2030, 11340, 7000
28139, -32, -884, -433, -1820, 13090, 4620
28159, -31, -898, -439, -2310, 14070, 2450
28179, -32, -912, -451, -3360, 12950, 1680
28199, -30, -922, -455, -3570, 10290, 1820
28219, -32, -921, -451, -1400, 7630, 2100
28239, -31, -909, -447, 910, 5880, 1540
28259, -31, -898, -441, -70, 4270, 350
28279, -31, -884, -434, -2170, 1470, -70
28299, -33, -873, -430, -1260, -2450, 840
28319, -33, -865, -422, 1190, -5110, 980
28339, -33, -866, -423, 2800, -5040, -840
28359, -31, -874, -430, 1470, -3290, -3990
28379, -31, -886, -436, -2170, -1610, -7140
28399, -30, -897, -441, -4550, -1540, -8890
28419, -32, -905, -445, -4550, -2870, -9240
28439, -31, -915, -449, -4410, -4550, -9520
28459, -31, -914, -451, -4340, -6650, -9590
28479, -32, -910, -447, -2030, -9730, -8750
28499, -31, -900, -439, 1890, -13090, -7350
28519, -33, -888, -436, 3570, -15400, -6930
28539, -34, -877, -430, -2240, -14630, -10430
28559, -30, -871, -428, -3780, -14000, -11760
28579, -30, -868, -428, -1890, -14840, -11200
28599, -33, -876, -430, 210, -16100, -10220
28619, -32, -884, -435, -420, -15890, -10500
28639, -29, -895, -441, -1890, -14070, -11970
28659, -29, -902, -442, -2660, -12250, -13230
28679, -30, -906, -445, -2590, -12250, -12880
28699, -29, -908, -446, -2240, -14140, -10920
28719, -29, -908, -448, -2590, -16030, -9100
28739, -31, -901, -446, -1890, -16240, -8330
28759, -28, -889, -438, 980, -15540, -7840
28779, -32, -878, -432, 3290, -15260, -6860
28799, -28, -876, -431, 2590, -15190, -5740
28819, -30, -874, -431, 420, -13930, -5390
28839, -30, -874, -430, -1820, -10920, -6300
28859, -30, -877, -433, -3430, -7490, -7210
28879, -29, -888, -440, -3080, -5810, -6580
28899, -27, -902, -445, -1610, -5740, -4550
28919, -30, -910, -451, -280, -5740, -2590
28939, -29, -913, -452, 420, -4620, -1680
28959, -29, -910, -448, 420, -2730, -1610
28979, -29, -897, -442, 140, -1680, -770
28999, -29, -888, -434, 0, -2450, 1470
29019, -30, -878, -434, 210, -3360, 4060
29039, -31, -871, -430, 840, -2660, 5320
29059, -31, -869, -428, 2310, 70, 5320
29079, -30, -873, -429, 2660, 3500, 4620
29099, -30, -884, -434, 1330, 6720, 4060
29119, -29, -897, -440, -1050, 9100, 3920
29139, -29, -906, -446, -3990, 11130, 3710
29159, -29, -907, -449, -5040, 12250, 4060
29179, -29, -908, -448, -2590, 11480, 6160
29199, -30, -906, -449, 1050, 9380, 9100
29219, -30, -900, -444, 3990, 7490, 11620
29239, -30, -890, -437, 4830, 7490, 12460
29259, -32, -880, -432, 2240, 10080, 10780
29279, -31, -873, -428, -840, 13090, 8750
29299, -31, -872, -428, -2170, 14770, 7910
29319, -32, -877, -432, -2100, 14910, 8260
29339, -31, -884, -434, -630, 14140, 9170
29359, -32, -892, -438, 560, 13860, 9730
29379, -32, -902, -445, -70, 14420, 9030
29399, -32, -909, -448, -1050, 14980, 8050
29419, -31, -911, -448, -1610, 15190, 7210
29439, -32, -905, -447, -1890, 14910, 6440
29459, -32, -896, -440, -1610, 13790, 6230
29479, -32, -885, -434, -1260, 11480, 6860
29499, -33, -877, -431, -280, 8260, 8050
29519, -31, -873, -427, 1960, 5460, 9170
29539, -34, -873, -427, 3920, 4970, 8470
29559, -32, -881, -430, 2660, 6930, 5600
29579, -31, -889, -438, -2240, 9940, 1400
29599, -30, -896, -443, -7000, 12110, -2310
29619, -32, -904, -444, -6930, 11340, -3360
29639, -30, -911, -448, -3010, 7630, -1820
29659, -30, -913, -448, 350, 2730, 350
29679, -32, -907, -447, 1750, -1540, 1820
29699, -32, -895, -442, 1050, -3500, 1120
29719, -32, -881, -433, -350, -3430, -1190
29739, -33, -870, -427, -350, -3220, -3430
29759, -33, -868, -426, -280, -3500, -4830
29779, -32, -875, -429, -1680, -4480, -5880
29799, -32, -884, -435, -2240, -5740, -6370
29819, -31, -893, -437, -1610, -6230, -7210
29839, -30, -899, -441, -1120, -6440, -8260
29859, -31, -909, -448, -1750, -7140, -9030
29879, -30, -912, -451, -4060, -7910, -10080
29899, -31, -906, -447, -4690, -9030, -10780
29919, -32, -895, -439, -1470, -10780, -10290
29939, -31, -883, -433, 1470, -13300, -9170
29959, -31, -878, -430, 1960, -16310, -7700
29979, -30, -874, -432, 910, -18270, -6790
29999, -31, -872, -431, -980, -17640, -7910
30019, -32, -876, -429, -910, -15050, -10010
30039, -29, -886, -435, -420, -12390, -11760
30059, -29, -898, -443, -3570, -10570, -13230
30079, -27, -901, -445, -6020, -10150, -13370
30099, -28, -908, -447, -3920, -11200, -11690
30119, -30, -905, -445, -420, -13090, -9030
30139, -28, -900, -447, 140, -14700, -7000
30159, -31, -894, -438, -490, -15820, -5670
30179, -29, -885, -436, 1260, -14770, -5110
30199, -31, -880, -432, 1050, -11970, -6230
30219, -31, -876, -430, 770, -10080, -6440
30239, -30, -879, -432, 700, -8330, -5810
30259, -31, -886, -438, -2170, -7560, -5250
30279, -28, -892, -438, 0, -5460, -2520
30299, -30, -901, -446, -980, -3570, -2310
30319, -30, -902, -444, -1400, -1960, -1820
30339, -28, -903, -447, -910, -490, -1050
30359, -29, -902, -447, -560, 350, -210
30379, -32, -896, -438, 2660, 910, 1680
30399, -29, -890, -436, 3220, 490, 3920
30419, -30, -885, -438, 70, 350, 5390
30439, -30, -881, -435, -1190, 1680, 6160
30459, -31, -877, -435, -280, 4270, 5810
30479, -31, -877, -432, 1400, 7630, 4970
30499, -31, -882, -430, 1960, 9800, 5110
30519, -28, -894, -440, -560, 10570, 5670
30539, -29, -901, -446, -2520, 11480, 6160
30559, -28, -906, -447, -1190, 12180, 7070
30579, -28, -909, -447, -70, 12180, 8050
30599, -29, -907, -448, -490, 12040, 8750
30619, -30, -898, -443, -280, 11130, 9940
30639, -30, -886, -437, 770, 10850, 10570
30659, -31, -875, -430, 2030, 11270, 10500
30679, -30, -870, -428, 3640, 11340, 10920
30699, -33, -874, -428, 2380, 11830, 10780
30719, -31, -882, -436, -1540, 13230, 9450
30739, -29, -892, -441, -3500, 14980, 7770
30759, -31, -899, -442, -3150, 17150, 5810
30779, -30, -905, -446, -2450, 17430, 4970
30799, -31, -911, -447, -1610, 14980, 6090
30819, -32, -910, -449, -700, 11550, 7770
30839, -30, -903, -444, 140, 8890, 8680
30859, -32, -892, -439, 1260, 7560, 8470
30879, -33, -883, -435, 490, 7420, 7000
30899, -32, -875, -431, -770, 7280, 5320
30919, -33, -871, -426, 140, 6720, 4410
30939, -34, -868, -425, 420, 6300, 3430
30959, -32, -874, -429, -1120, 6020, 2100
30979, -31, -887, -435, -2170, 5600, 980
30999, -31, -897, -441, -2870, 5180, -210
31019, -30, -906, -446, -3080, 4480, -1470
31039, -30, -910, -447, -2380, 3290, -2240
31059, -32, -914, -449, -2730, 2030, -3290
31079, -32, -911, -448, -3010, 210, -3990
31099, -32, -902, -443, -1190, -2590, -3640
31119, -32, -892, -437, 1540, -5950, -2660
31139, -33, -882, -432, 2660, -9030, -1890
31159, -32, -877, -431, 350, -10220, -2870
31179, -32, -870, -428, -3010, -9100, -5600
31199, -33, -871, -428, -3360, -7280, -8330
31219, -32, -873, -428, -1470, -6720, -9730
31239, -31, -884, -433, -210, -7840, -9800
31259, -30, -900, -442, -840, -9450, -9310
31279, -31, -910, -449, -3150, -10080, -9800
31299, -31, -913, -449, -4620, -10010, -10850
31319, -30, -909, -448, -3290, -10780, -10920
31339, -30, -905, -445, -1750, -12810, -10080
31359, -30, -898, -445, -770, -14910, -9100
31379, -30, -892, -441, 210, -15750, -8680
31399, -31, -879, -433, 910, -15330, -9240
31419, -30, -870, -426, 1890, -14910, -9380
31439, -31, -867, -426, 1610, -15260, -8680
31459, -31, -874, -434, -1610, -15190, -8330
31479, -32, -883, -437, -4550, -13860, -8960
31499, -30, -892, -439, -3500, -11410, -9730
31519, -30, -899, -441, -1120, -9240, -10290
31539, -29, -906, -447, -140, -8470, -9730
31559, -29, -911, -449, -980, -8960, -8400
31579, -28, -910, -448, -2450, -9310, -7210
31599, -28, -902, -446, -1470, -9310, -6020
31619, -31, -893, -439, 1470, -9730, -4060
31639, -30, -886, -439, 1680, -10150, -2310
31659, -30, -876, -434, -980, -9730, -1610
31679, -32, -866, -427, -1190, -7700, -1820
31699, -30, -865, -424, 1890, -4690, -2100
31719, -31, -877, -427, 4550, -2660, -1400
31739, -31, -889, -440, 2100, -1820, -70
31759, -29, -901, -449, -3850, -350, 140
31779, -28, -907, -449, -6440, 2730, -700
31799, -27, -909, -449, -3290, 5600, -910
31819, -29, -911, -448, 910, 5950, 770
31839, -29, -907, -448, 2310, 3570, 4060
31859, -30, -897, -443, 1540, 1470, 6790
31879, -30, -881, -432, 1400, 2100, 7490
31899, -30, -871, -425, 2800, 4480, 7070
31919, -31, -865, -424, 2660, 6230, 7070
31939, -30, -868, -428, 0, 6930, 7560
31959, -30, -879, -434, -1680, 7840, 7980
31979, -31, -889, -437, -700, 10220, 7490
31999, -30, -899, -441, 910, 13510, 6090
32019, -28, -912, -447, 700, 15120, 5740
32039, -31, -917, -455, -4550, 12880, 7560
32059, -30, -916, -453, -2450, 12180, 8400
32079, -30, -907, -446, 1400, 11970, 8750
32099, -30, -891, -436, 2940, 10780, 9450
32119, -31, -879, -431, 2380, 8190, 10920
32139, -33, -873, -428, 1330, 6860, 11480
32159, -34, -869, -428, 910, 8470, 9870
32179, -30, -868, -425, 1120, 11690, 7140
32199, -33, -876, -429, -910, 14350, 4550
32219, -31, -887, -434, -4970, 14910, 3080
32239, -31, -894, -441, -5950, 13090, 3570
32259, -32, -905, -447, -3360, 10780, 4620
32279, -31, -911, -449, 420, 8890, 5040
32299, -32, -913, -446, 3500, 7000, 5600
32319, -31, -908, -446, 1190, 5670, 4900
32339, -31, -901, -444, -3990, 5320, 2730
32359, -32, -889, -437, -3430, 4900, 1540
32379, -33, -880, -433, -350, 3780, 1050
32399, -33, -878, -430, 630, 2030, 840
32419, -33, -879, -431, 1050, -420, 1260
32439, -34, -884, -434, -490, -1260, 350
32459, -32, -888, -438, -2730, 140, -2590
32479, -31, -890, -437, -2170, 1470, -4970
32499, -33, -899, -440, -2520, 1400, -6440
32519, -31, -906, -447, -4480, -630, -6790
32539, -31, -906, -447, -3570, -4060, -5530
32559, -31, -899, -442, -1540, -6720, -4830
32579, -31, -885, -437, -210, -8400, -5110
32599, -33, -881, -432, 1610, -10220, -4830
32619, -34, -875, -429, 1680, -11480, -5110
32639, -33, -876, -432, 350, -11410, -6300
32659, -31, -885, -435, -1120, -9940, -8190
32679, -30, -893, -440, -4200, -7560, -11060
32699, -31, -899, -444, -5950, -6090, -13020
32719, -29, -907, -445, -4340, -7700, -12110
32739, -29, -907, -449, -2030, -11200, -9800
32759, -31, -907, -449, 350, -14210, -7770
32779, -31, -902, -443, 2380, -15540, -6790
32799, -30, -894, -439, 1330, -14490, -7840
32819, -31, -883, -433, -980, -13090, -9240
32839, -32, -876, -431, -1890, -12880, -9170
32859, -31, -876, -431, -2380, -12880, -8820
32879, -29, -876, -433, -1680, -12530, -8400
32899, -31, -877, -432, 630, -12040, -7770
32919, -31, -886, -437, 1050, -10920, -7560
32939, -30, -896, -443, -700, -10080, -7350
32959, -30, -900, -445, -2030, -9240, -6930
32979, -29, -899, -445, -2660, -7770, -6860
32999, -30, -903, -442, -1960, -6650, -6440
33019, -31, -900, -444, -1330, -6580, -4830
33039, -29, -892, -447, -2800, -6860, -3850
33059, -31, -887, -435, 1190, -7770, -1260
33079, -30, -886, -437, 5880, -7280, 630
33099, -31, -882, -432, 3640, -5530, 280
33119, -30, -883, -432, 840, -2590, -210
33139, -27, -881, -437, -3290, -70, -910
33159, -30, -884, -436, -4550, 1820, -910
33179, -31, -890, -435, 70, 1960, 1470
33199, -30, -896, -444, 1960, 1820, 3430
33219, -29, -898, -443, -70, 2660, 3780
33239, -30, -900, -444, 1750, 4200, 4550
33259, -30, -903, -445, 2380, 5880, 4830
33279, -30, -899, -443, 280, 7700, 4340
33299, -29, -897, -442, -1260, 8120, 5320
33319, -31, -893, -442, -3430, 8120, 6020
33339, -31, -886, -436, -2380, 8540, 6720
33359, -30, -885, -435, 3150, 7700, 8820
33379, -31, -882, -434, 5320, 7490, 9940
33399, -31, -884, -434, 2660, 8890, 9170
33419, -31, -885, -436, 280, 10570, 8260
33439, -31, -884, -434, -1890, 13160, 6580
33459, -32, -886, -436, -3290, 14420, 5740
33479, -31, -891, -440, -2590, 12740, 7210
33499, -31, -899, -445, -2030, 10990, 8470
33519, -32, -905, -446, 210, 10220, 8890
33539, -32, -906, -444, 3990, 10430, 8820
33559, -31, -901, -443, 2380, 12180, 6720
33579, -31, -895, -440, -3010, 12950, 4690
33599, -32, -886, -438, -4970, 11550, 4830
33619, -31, -879, -434, -3640, 9240, 5810
33639, -31, -877, -428, 420, 6440, 7210
33659, -33, -876, -429, 4270, 4270, 8400
33679, -32, -881, -434, 2590, 4340, 6930
33699, -33, -887, -436, -840, 6090, 3990
33719, -31, -894, -439, -1750, 8330, 1120
33739, -31, -902, -443, -3500, 9870, -1540
33759, -32, -908, -447, -5250, 8890, -2310
33779, -31, -911, -451, -5110, 5530, -1050
33799, -31, -908, -447, 210, -1470, 1190
33819, -33, -898, -441, 4970, -3430, 1610
33839, -32, -888, -433, 3430, -3570, -280
33859, -33, -878, -431, -1190, -3080, -2660
33879, -34, -873, -430, -4690, -2800, -4410
33899, -31, -874, -433, -5810, -2800, -5880
33919, -32, -879, -432, -2450, -3710, -6020
33939, -33, -889, -434, 770, -5040, -5670
33959, -31, -896, -442, -420, -5810, -6510
33979, -32, -906, -446, -2030, -6230, -7350
33999, -32, -912, -450, -2870, -6370, -8260
34019, -30, -906, -447, -3990, -6580, -9520
34039, -30, -888, -433, -2310, -8260, -8890
34059, -31, -875, -430, -910, -11830, -6650
34079, -30, -863, -425, -770, -14840, -4970
34099, -31, -871, -431, 2100, -16730, -3220
34119, -31, -887, -437, 3220, -14700, -4550
34139, -30, -893, -439, 770, -8120, -9940
34159, -31, -904, -441, -2660, -3220, -13650
34179, -30, -919, -453, -9800, -1330, -15330
34199, -26, -925, -465, -14210, -3640, -14280
34219, -29, -919, -457, -3710, -9730, -8400
34239, -30, -899, -441, 8890, -14770, -2870
34259, -32, -886, -435, 10150, -17780, -490
34279, -32, -876, -428, 5600, -18060, -140
34299, -33, -866, -429, -1260, -13370, -3640
34319, -30, -861, -424, -5040, -6790, -8330
34339, -31, -862, -419, -1540, -2240, -10010
34359, -28, -874, -429, -1470, -1120, -9310
34379, -28, -891, -440, -5460, -3150, -7000
34399, -30, -906, -451, -3150, -6300, -2730
34419, -30, -919, -456, 2660, -6860, -420
34439, -30, -922, -452, 5110, -5110, -630
34459, -31, -916, -449, 2730, -2730, -1610
34479, -27, -901, -449, -5390, -560, -3430
34499, -28, -883, -439, -7910, 210, -3710
34519, -29, -870, -428, 560, -1820, 0
34539, -31, -866, -424, 8260, -5180, 4620
34559, -31, -865, -423, 9240, -6790, 7420
34579, -33, -872, -429, 5040, -4690, 7140
34599, -30, -881, -437, -2870, 1890, 2800
34619, -31, -891, -440, -6930, 9310, -2100
34639, -29, -903, -442, -4340, 12810, -3010
34659, -29, -914, -452, -2520, 11480, -770
34679, -27, -919, -455, -2030, 6930, 3640
34699, -29, -913, -452, 1260, 2380, 8330
34719, -29, -900, -444, 4900, 840, 10360
34739, -30, -886, -434, 6790, 1750, 10360
34759, -32, -873, -428, 4620, 3570, 9310
34779, -32, -866, -429, -2240, 6860, 6510
34799, -31, -864, -426, -6090, 10220, 3990
34819, -30, -867, -428, -2590, 11620, 4060
34839, -30, -881, -434, 2170, 10710, 5810
34859, -31, -899, -441, 4060, 8400, 8330
34879, -31, -916, -452, 1960, 7490, 9310
34899, -30, -922, -456, -3500, 10150, 6720
34919, -30, -912, -452, -7350, 13790, 3010
34939, -29, -897, -441, -5740, 14280, 2100
34959, -31, -885, -437, -1400, 10710, 4480
34979, -32, -881, -433, 3010, 4900, 8680
34999, -32, -878, -430, 6370, 1400, 11270
35019, -33, -876, -430, 6090, 2310, 10080
35039, -33, -875, -428, 2590, 5740, 6510
35059, -33, -883, -432, -2590, 8960, 3010
35079, -31, -892, -441, -8540, 11130, -140
35099, -29, -898, -445, -10500, 11760, -1890
35119, -30, -903, -445, -5810, 10360, -1470
35139, -30, -904, -443, 1190, 6650, 840
35159, -31, -904, -442, 5880, 1540, 3920
35179, -31, -907, -446, 4970, -2100, 5670
35199, -33, -908, -449, -1470, -1470, 3360
35219, -31, -906, -448, -7560, 2590, -1750
35239, -31, -895, -440, -8400, 5600, -5530
35259, -31, -876, -430, -5600, 4830, -6230
35279, -32, -861, -422, -1610, -70, -3710
35299, -32, -856, -422, 2170, -5950, -70
35319, -32, -863, -421, 4900, -8820, 1540
35339, -32, -882, -430, 6860, -7840, 630
35359, -32, -902, -440, 4620, -4060, -2660
35379, -31, -922, -454, -4830, 1120, -8050
35399, -28, -928, -462, -16030, 4760, -13020
35419, -29, -921, -458, -18200, 4480, -14420
35439, -31, -906, -445, -7630, -140, -11340
35459, -32, -888, -433, 7560, -8750, -4550
35479, -33, -877, -429, 14700, -17500, 1960
35499, -32, -873, -431, 10080, -20650, 3220
35519, -33, -875, -432, 910, -16100, -1610
35539, -31, -889, -436, -6020, -6860, -9380
35559, -31, -904, -444, -10850, 1890, -16870
35579, -29, -904, -449, -9030, -3150, -13090
35599, -29, -898, -445, -3360, -10500, -7350
35619, -29, -887, -440, 6230, -16240, -2100
35639, -32, -879, -429, 13930, -18200, 350
35659, -33, -874, -426, 12460, -16170, -910
35679, -33, -884, -432, 1610, -11130, -5180
35699, -29, -897, -443, -10780, -4830, -10850
35719, -29, -898, -448, -13160, -560, -14000
35739, -30, -891, -440, -5950, -1820, -11830
35759, -29, -883, -436, 1960, -8610, -5530
35779, -30, -875, -431, 6790, -16590, 1610
35799, -32, -864, -426, 9240, -19740, 4900
35819, -30, -861, -423, 9310, -16170, 3150
35839, -31, -869, -424, 6370, -8540, -1680
35859, -31, -895, -440, -1330, -1750, -6090
35879, -26, -914, -449, -11130, 3080, -9590
35899, -28, -922, -461, -15330, 3780, -9800
35919, -28, -904, -450, -8120, 0, -5950
35939, -30, -882, -436, 6790, -6650, 910
35959, -30, -875, -429, 19600, -15400, 9240
35979, -32, -886, -431, 22680, -18410, 13020
35999, -33, -901, -442, 13230, -13300, 8890
36019, -32, -899, -438, -2800, -910, -1190
36039, -30, -884, -434, -19600, 11830, -11830
36059, -28, -880, -438, -27790, 14490, -14630
36079, -26, -893, -449, -16590, 5110, -6300
36099, -29, -901, -452, 9240, -8260, 6650
36119, -31, -888, -431, 32480, -16730, 15680
36139, -35, -866, -409, 33110, -14560, 15190
36159, -34, -839, -404, 4480, -4270, 5740
36179, -32, -834, -416, -29190, 5950, -5180
36199, -31, -870, -445, -33670, 9800, -7840
36219, -28, -951, -484, -8400, 8120, -4620
36239, -33, -996, -478, 25690, 7350, -1680
36259, -35, -990, -460, 33180, 10290, -4200
36279, -28, -934, -453, -4760, 12530, -12180
36299, -24, -886, -450, -46060, 6720, -14910
36319, -26, -856, -440, -40740, -13160, -140
36339, -35, -847, -423, 3150, -35560, 21000
36359, -40, -854, -416, 41580, -45150, 30730
36379, -39, -874, -420, 45010, -33040, 19390
36399, -34, -894, -434, 15610, -2450, -8680
36419, -28, -907, -439, -20440, 27440, -35770
36439, -25, -915, -443, -39480, 35630, -43540
36459, -25, -917, -457, -40880, 15610, -28700
36479, -28, -900, -465, -27930, -19320, -2730
36499, -33, -870, -441, 7280, -47390, 19390
36519, -38, -842, -407, 48510, -53900, 26110
36539, -41, -823, -380, 60830, -42280, 16590
36559, -39, -822, -382, 30940, -20090, -2730
36579, -32, -832, -409, -26460, 4130, -25550
36599, -24, -845, -434, -70980, 21000, -42140
36619, -23, -864, -439, -65100, 20510, -40040
36639, -25, -903, -448, -18480, 350, -18340
36659, -33, -969, -475, 26600, -29400, 9800
36679, -38, -1019, -501, 40250, -46620, 24500
36699, -33, -1022, -510, 20230, -35770, 13020
36719, -28, -975, -479, -14070, -2800, -18340
36739, -23, -929, -452, -35700, 23660, -42910
36759, -22, -903, -450, -37240, 16940, -38850
36779, -28, -886, -449, -21210, -16310, -11970
36799, -33, -867, -434, 9240, -47460, 15680
36819, -36, -845, -413, 36960, -55440, 25270
36839, -36, -829, -395, 41510, -38780, 14210
36859, -33, -830, -392, 19670, -12950, -5460
36879, -29, -852, -419, -16730, 7910, -21980
36899, -26, -882, -447, -46550, 18480, -30170
36919, -23, -906, -459, -49140, 19180, -28490
36939, -25, -926, -460, -23030, 10710, -17290
36959, -28, -946, -465, 12110, -5600, 420
36979, -33, -962, -469, 33740, -22960, 17150
36999, -35, -944, -466, 30030, -27300, 20860
37019, -30, -898, -442, 6160, -10150, 5320
37039, -28, -857, -420, -19530, 16590, -17640
37059, -25, -830, -412, -29820, 29400, -27860
37079, -26, -831, -413, -19460, 17990, -16450
37099, -32, -846, -418, 5740, -7350, 8190
37119, -36, -865, -422, 28980, -25200, 27090
37139, -35, -886, -433, 32620, -20860, 26950
37159, -31, -905, -446, 13720, 1400, 10080
37179, -27, -921, -453, -11480, 25970, -10080
37199, -24, -936, -463, -24220, 38080, -19810
37219, -24, -945, -471, -21630, 33040, -15260
37239, -25, -938, -466, -8750, 17850, -1960
37259, -28, -917, -454, 7840, 1050, 12810
37279, -31, -893, -439, 22260, -11760, 23870
37299, -35, -866, -424, 29120, -16170, 27580
37319, -35, -845, -411, 7630, 9660, 5600
37339, -32, -840, -409, -11760, 27930, -10010
37359, -29, -851, -417, -20300, 34720, -15190
37379, -27, -871, -432, -11830, 25130, -6090
37399, -28, -899, -443, 7070, 6370, 10990
37419, -32, -921, -454, 20930, -8400, 23870
37439, -35, -936, -462, 19740, -8680, 23240
37459, -34, -927, -458, 7910, 3710, 11060
37479, -31, -900, -441, -3920, 17430, -2450
37499, -30, -876, -428, -9310, 20230, -6860
37519, -30, -860, -423, -6230, 12040, -1260
37539, -29, -862, -423, 2660, 350, 7980
37559, -33, -874, -429, 12460, -7560, 14490
37579, -33, -888, -433, 16660, -8260, 15260
37599, -34, -900, -438, 10150, -2380, 9520
37619, -32, -906, -445, -4060, 7000, -420
37639, -31, -904, -449, -14980, 15540, -9730
37659, -28, -893, -443, -13860, 16660, -11900
37679, -28, -884, -433, -2520, 7560, -4900
37699, -32, -882, -429, 8400, -8330, 7560
37719, -33, -879, -431, 12320, -20930, 16800
37739, -35, -879, -435, 9590, -21280, 15890
37759, -33, -874, -430, 2940, -8890, 4690
37779, -32, -876, -424, -5460, 6720, -9170
37799, -30, -887, -432, -13230, 14700, -16800
37819, -27, -906, -449, -17570, 11130, -15190
37839, -28, -921, -457, -12530, 630, -7350
37859, -29, -924, -456, 630, -10500, 1960
37879, -31, -919, -449, 9940, -16940, 7140
37899, -31, -909, -447, 7280, -17150, 5880
37919, -32, -897, -442, -3500, -11550, -700
37939, -31, -881, -435, -13160, -2940, -9310
37959, -28, -865, -427, -14840, 3850, -15330
37979, -30, -864, -423, -9660, 3290, -14560
37999, -28, -875, -429, -3010, -4480, -7630
38019, -30, -890, -438, 1120, -13510, 420
38039, -32, -897, -442, 770, -16240, 3080
38059, -31, -896, -442, -4270, -10010, -1890
38079, -30, -896, -441, -10640, -420, -9730
38099, -28, -900, -443, -14210, 4900, -14070
38119, -29, -903, -445, -12740, 3990, -12880
38139, -29, -903, -446, -7490, -910, -8190
38159, -29, -896, -443, -1540, -5950, -3080
38179, -30, -892, -437, 2170, -8750, 210
38199, -30, -888, -436, 1680, -9520, 1540
38219, -31, -885, -436, -2450, -7420, 210
38239, -31, -878, -434, -7350, -2030, -3780
38259, -30, -871, -431, -10290, 4480, -8540
38279, -29, -866, -425, -9170, 8050, -10640
38299, -29, -865, -425, -3360, 5670, -7350
38319, -30, -873, -428, 3220, -1120, -280
38339, -30, -892, -440, 5460, -6230, 5250
38359, -30, -910, -449, 1610, -4620, 4900
38379, -31, -921, -457, -4690, 2940, -700
38399, -28, -929, -460, -9730, 10990, -6930
38419, -28, -926, -460, -10430, 13440, -9240
38439, -27, -916, -452, -4410, 9380, -5740
38459, -28, -903, -445, 4690, 2030, 840
38479, -31, -896, -440, 9870, -4900, 6650
38499, -33, -881, -433, 10080, -8470, 9450
38519, -31, -862, -426, 6510, -7140, 8260
38539, -31, -850, -418, 350, -1470, 3220
38559, -31, -848, -417, -3500, 5880, -2590
38579, -30, -863, -424, -2660, 10500, -5600
38599, -29, -885, -434, 1400, 9870, -4060
38619, -31, -907, -443, 6370, 5460, 630
38639, -31, -926, -454, 7210, 980, 4760
38659, -28, -934, -465, 2030, -140, 4970
38679, -29, -928, -459, -2310, 1960, 2310
38699, -30, -914, -451, -1330, 3990, -70
38719, -30, -895, -442, 2520, 3150, -280
38739, -32, -882, -434, 6370, -630, 2030
38759, -32, -871, -427, 8820, -4970, 4760
38779, -32, -858, -419, 10500, -6860, 5950
38799, -33, -854, -416, 11340, -6580, 5880
38819, -33, -861, -420, 8540, -5460, 5040
38839, -32, -872, -431, 1400, -3430, 3010
38859, -30, -889, -442, -5180, -140, -280
38879, -28, -904, -447, -5180, 3500, -3360
38899, -30, -915, -449, 910, 5180, -4410
38919, -29, -927, -454, 7350, 2520, -2170
38939, -31, -933, -459, 8680, -3290, 1960
38959, -31, -930, -461, 4270, -7910, 4550
38979, -31, -913, -452, -980, -8470, 3640
38999, -31, -890, -438, -2170, -6440, 980
39019, -32, -870, -429, -210, -5180, -770
39039, -31, -857, -422, 2380, -6650, -350
39059, -31, -847, -416, 5320, -9590, 2310
39079, -32, -846, -411, 7490, -8120, 1960
39099, -31, -856, -414, 2170, -5670, 700
39119, -32, -876, -430, -6930, -2590, -1610
39139, -30, -901, -447, -13440, 1050, -4480
39159, -29, -924, -459, -12320, 4340, -6650
39179, -29, -938, -466, -6300, 5530, -7210
39199, -27, -946, -465, -490, 2660, -5040
39219, -28, -943, -465, 1890, -3220, -840
39239, -30, -934, -460, 280, -8540, 2660
39259, -29, -910, -449, -3080, -9660, 2730
39279, -30, -879, -433, -4830, -7490, 490
39299, -30, -847, -418, -5390, -4900, -1610
39319, -31, -831, -410, -5040, -3220, -2450
39339, -31, -830, -407, -1540, -2590, -1470
39359, -31, -844, -412, 1890, -1120, -560
39379, -31, -869, -424, -280, 2660, -1750
39399, -29, -897, -439, -7840, 7280, -4340
39419, -28, -927, -456, -16730, 11200, -7070
39439, -28, -947, -473, -21140, 12460, -8400
39459, -27, -955, -476, -15610, 10220, -6510
39479, -28, -944, -467, -3710, 5740, -2450
39499, -29, -925, -455, 4130, 280, 1540
39519, -31, -898, -443, 4970, -4200, 4480
39539, -32, -871, -428, 1820, -5600, 4970
39559, -32, -845, -415, -2100, -3150, 2730
39579, -34, -823, -404, -4970, 1190, -280
39599, -31, -816, -398, -6580, 4690, -2240
39619, -31, -825, -407, -6440, 6300, -2170
39639, -31, -850, -418, -4130, 6790, -910
39659, -31, -887, -436, -840, 8330, -420
39679, -31, -928, -454, -630, 11550, -1820
39699, -30, -966, -475, -6720, 14560, -4550
39719, -28, -985, -490, -14910, 14910, -6720
39739, -25, -972, -487, -15540, 11830, -6300
39759, -28, -935, -465, -6370, 5250, -2520
39779, -30, -891, -439, 6090, -3570, 3360
39799, -31, -854, -416, 14350, -11550, 8680
39819, -33, -824, -403, 16100, -14840, 10710
39839, -34, -808, -394, 11760, -11760, 8260
39859, -34, -810, -396, 3780, -3710, 2450
39879, -32, -834, -409, -4690, 5600, -3990
39899, -33, -875, -432, -10220, 12600, -8470
39919, -29, -921, -457, -11410, 15330, -9870
39939, -28, -966, -479, -8330, 13300, -8050
39959, -28, -992, -493, -2310, 7770, -4340
39979, -27, -983, -486, 4270, 980, -560
39999, -30, -945, -467, 8610, -5670, 2520
40019, -31, -902, -445, 8820, -11340, 4270
40039, -31, -865, -427, 6860, -15610, 5250
40059, -32, -836, -411, 6370, -16450, 4550
40079, -33, -815, -399, 7910, -13580, 2240
40099, -33, -812, -396, 8750, -9520, -420
40119, -31, -827, -406, 6860, -5880, -2450
40139, -31, -854, -417, 4270, -3360, -3360
40159, -31, -886, -433, 2380, -980, -3850
40179, -29, -923, -454, -1330, 1400, -4970
40199, -28, -951, -472, -5950, 2380, -5740
40219, -28, -961, -481, -7700, 140, -4760
40239, -25, -951, -473, -2940, -4410, -2170
40259, -28, -924, -456, 7140, -9450, 1120
40279, -31, -897, -438, 14700, -13720, 3780
40299, -32, -871, -429, 14000, -15680, 4200
40319, -31, -852, -417, 7910, -15120, 2800
40339, -31, -842, -414, 2310, -12810, 840
40359, -32, -842, -414, -350, -9520, -1120
40379, -30, -858, -421, -840, -6370, -2520
40399, -30, -885, -436, -1050, -3920, -3290
40419, -29, -909, -449, -1470, -1750, -4060
40439, -29, -926, -455, -490, -210, -4270
40459, -29, -931, -457, 560, -70, -3710
40479, -30, -927, -458, -1190, -1330, -2730
40499, -29, -916, -454, -4060, -3850, -1120
40519, -27, -898, -446, -3920, -6580, 1050
40539, -31, -879, -433, -70, -8190, 2660
40559, -31, -863, -421, 4130, -8190, 3290
40579, -30, -856, -421, 4830, -6300, 2520
40599, -32, -859, -423, 1260, -2660, 420
40619, -31, -873, -428, -3150, 1190, -1680
40639, -29, -887, -435, -5880, 4200, -2730
40659, -30, -901, -444, -7700, 6090, -2940
40679, -30, -910, -451, -9170, 6720, -2450
40699, -29, -918, -455, -9800, 6160, -1260
40719, -28, -914, -452, -7210, 5110, 140
40739, -30, -905, -444, -630, 3710, 2170
40759, -30, -893, -437, 3640, 2940, 3570
40779, -31, -881, -432, 140, 3500, 3150
40799, -31, -876, -432, -6580, 5040, 1750
40819, -30, -874, -432, -8610, 7770, 490
40839, -32, -879, -432, -3640, 7770, 1470
40859, -32, -886, -436, -1540, 7980, 1890
40879, -31, -899, -442, -4900, 9520, 490
40899, -29, -909, -449, -7840, 11620, -1400
40919, -31, -912, -449, -6860, 12530, -1890
40939, -30, -907, -445, -5530, 11130, -910
40959, -31, -900, -443, -6020, 7910, 1190
40979, -33, -893, -443, -6580, 4970, 2800
40999, -31, -884, -439, -4130, 3920, 3220
41019, -31, -876, -431, 1610, 4130, 3080
41039, -31, -873, -425, 4200, 4900, 2380
41059, -31, -877, -429, -560, 6580, 280
41079, -31, -884, -436, -7840, 8610, -2520
41099, -31, -894, -442, -10220, 10080, -4270
41119, -30, -903, -444, -6790, 9310, -4060
41139, -29, -909, -447, -1540, 5740, -1540
41159, -30, -909, -448, 980, 1330, 1120
41179, -31, -908, -450, 140, -910, 1610
41199, -30, -900, -443, 420, -700, 280
41219, -32, -887, -436, 2660, 140, -1190
41239, -32, -878, -430, 2660, -490, -1750
41259, -32, -874, -428, -70, -2450, -1400
41279, -32, -874, -431, -2100, -3990, -1190
41299, -30, -877, -433, -910, -4130, -1680
41319, -32, -883, -432, 3080, -3780, -2240
41339, -31, -894, -439, 5460, -4130, -2450
41359, -31, -907, -447, 3150, -4550, -3220
41379, -32, -917, -452, -490, -4130, -4550
41399, -29, -917, -453, -2240, -3710, -5950
41419, -30, -905, -445, -1120, -5180, -5670
41439, -29, -890, -438, 2940, -9590, -2800
41459, -30, -879, -435, 6930, -15120, 1120
41479, -31, -874, -432, 8470, -17290, 2240
41499, -32, -870, -426, 9380, -14910, 280
41519, -32, -874, -427, 7840, -10080, -3500
41539, -30, -882, -433, 1960, -6510, -6720
41559, -29, -896, -442, -3080, -5880, -7350
41579, -29, -904, -449, -3920, -7350, -6020
41599, -30, -909, -450, -420, -8470, -4620
41619, -30, -907, -445, 5320, -10220, -2520
41639, -28, -904, -445, 8820, -12460, -490
41659, -30, -897, -441, 8820, -14140, 1050
41679, -30, -890, -436, 7070, -13510, 910
41699, -29, -881, -435, 2730, -10220, -1470
41719, -29, -876, -432, -1750, -6230, -4340
41739, -31, -876, -432, -2170, -5110, -4340
41759, -31, -883, -434, 1330, -6650, -1820
41779, -31, -894, -439, 4480, -8330, 840
41799, -29, -903, -446, 5460, -7420, 1330
41819, -29, -906, -444, 2660, -3850, -700
41839, -29, -903, -444, -1190, -140, -3010
41859, -29, -897, -442, -3220, 560, -2660
41879, -30, -892, -441, -2940, -1260, -280
41899, -30, -884, -438, -1400, -3080, 2310
41919, -30, -878, -434, 1330, -3430, 3920
41939, -31, -876, -428, 3500, -2380, 4410
41959, -30, -880, -433, 3430, -140, 3850
41979, -30, -889, -436, 700, 2940, 2450
41999, -28, -897, -442, -4830, 7350, -280
42019, -29, -904, -448, -10290, 11200, -2800
42039, -28, -908, -449, -10500, 11900, -2450
42059, -30, -906, -448, -5950, 9030, 980
42079, -30, -902, -444, -420, 4690, 5390
42099, -31, -893, -440, 2170, 2310, 7980
42119, -31, -882, -435, 0, 4200, 6790
42139, -31, -874, -429, -3500, 8400, 3570
42159, -31, -869, -425, -5670, 11620, 1260
42179, -31, -873, -430, -7280, 12600, 840
42199, -32, -884, -436, -7560, 11760, 1820
42219, -30, -896, -444, -6300, 11060, 2870
42239, -30, -908, -446, -4970, 11410, 2730
42259, -30, -911, -449, -3920, 12040, 2240
42279, -30, -911, -449, -4060, 12110, 1890
42299, -30, -907, -448, -6440, 12040, 1050
42319, -30, -900, -445, -8190, 11620, 420
42339, -30, -888, -438, -7140, 10570, 560
42359, -31, -878, -430, -3850, 8400, 1680
42379, -32, -873, -426, -70, 5040, 3850
42399, -32, -875, -430, 420, 2870, 4900
42419, -32, -881, -434, -2450, 3850, 3010
42439, -33, -886, -434, -4410, 7280, -560
42459, -30, -895, -439, -5670, 10430, -3920
42479, -29, -905, -446, -7350, 10780, -5390
42499, -30, -912, -451, -7280, 7700, -4130
42519, -30, -910, -451, -4760, 3570, -1820
42539, -30, -902, -443, -910, 140, -280
42559, -31, -893, -439, 2800, -2520, 770
42579, -31, -885, -434, 210, -4690, -560
42599, -33, -878, -432, -2310, -3500, -2940
42619, -33, -875, -431, -2730, -1960, -5250
42639, -30, -873, -429, -1190, -2030, -6160
42659, -31, -879, -431, 910, -4830, -4620
42679, -29, -891, -439, 1610, -8260, -2660
42699, -29, -903, -446, 1680, -9380, -2590
42719, -31, -908, -448, 2240, -8050, -4410
42739, -30, -909, -446, 980, -6300, -6790
42759, -31, -906, -449, -1050, -6790, -7560
42779, -30, -901, -446, -70, -9870, -5810
42799, -32, -892, -440, 3220, -13370, -3360
42819, -30, -881, -435, 6090, -15540, -1890
42839, -31, -874, -429, 7840, -16240, -1330
42859, -29, -873, -427, 7000, -15540, -2030
42879, -30, -877, -431, 3990, -13510, -3710
42899, -29, -884, -434, 1400, -10780, -5810
42919, -28, -892, -441, -280, -7980, -7700
42939, -28, -900, -444, -420, -6930, -8120
42959, -28, -909, -450, 1750, -8680, -6020
42979, -28, -913, -450, 4060, -11760, -2870
42999, -27, -910, -450, 5530, -13860, -770
43019, -29, -900, -444, 7000, -13650, -210
43039, -31, -890, -439, 5880, -11690, -1190
43059, -29, -881, -433, 3010, -9660, -2310
43079, -29, -870, -429, 1750, -8470, -2240
43099, -33, -864, -426, 2030, -7770, -1610
43119, -29, -865, -425, 3150, -7350, -420
43139, -31, -877, -432, 4480, -6790, 840
43159, -28, -893, -440, 4410, -5110, 1120
43179, -30, -906, -446, 2520, -1960, 0
43199, -27, -915, -451, -1120, 1680, -1750
43219, -27, -920, -455, -5460, 4200, -3150
43239, -28, -918, -455, -5530, 4340, -2380
43259, -28, -906, -449, -420, 1750, 1050
43279, -29, -894, -441, 4620, -1960, 5250
43299, -30, -882, -434, 6020, -4060, 7910
43319, -31, -871, -430, 4270, -2660, 7700
43339, -30, -864, -425, 840, 2100, 4830
43359, -31, -863, -424, -2800, 7420, 1610
43379, -30, -870, -430, -5670, 10780, 70
43399, -30, -886, -437, -7140, 11830, 280
43419, -30, -902, -445, -6020, 11900, 1330
43439, -29, -915, -451, -3500, 11480, 2870
43459, -29, -919, -455, -2240, 10920, 3990
43479, -29, -918, -450, -2730, 10080, 4830
43499, -30, -907, -449, -4200, 9590, 5040
43519, -30, -893, -440, -5740, 10220, 4200
43539, -31, -878, -433, -5460, 10920, 3430
43559, -29, -869, -427, -3500, 10500, 3850
43579, -31, -869, -428, -1750, 9100, 5040
43599, -31, -874, -428, -1540, 8190, 5880
43619, -32, -879, -431, -2870, 9450, 4760
43639, -31, -889, -436, -5740, 12810, 1820
43659, -30, -901, -443, -9310, 15750, -1120
43679, -29, -912, -452, -10920, 16170, -2240
43699, -29, -915, -453, -8890, 13860, -1050
43719, -30, -907, -448, -5110, 10220, 1050
43739, -31, -899, -442, -1820, 6860, 2800
43759, -31, -890, -436, -350, 4480, 3570
43779, -31, -881, -433, -630, 2870, 3570
43799, -30, -873, -430, -2100, 2660, 2520
43819, -32, -872, -427, -4410, 3990, 70
43839, -30, -873, -429, -5950, 5740, -2520
43859, -30, -882, -433, -5740, 6440, -4060
43879, -31, -895, -440, -4410, 4830, -3780
43899, -32, -905, -446, -2170, 2030, -2520
43919, -30, -912, -449, -630, -210, -1750
43939, -30, -911, -448, -1400, -980, -2660
43959, -29, -903, -445, -3290, -1190, -4130
43979, -31, -894, -442, -3780, -2520, -4620
43999, -32, -886, -436, -1960, -5460, -3570
44019, -32, -881, -434, 1610, -8400, -2240
44039, -31, -877, -430, 3780, -9940, -1960
44059, -33, -875, -428, 3360, -9660, -3150
44079, -31, -878, -431, 1540, -8750, -4690
44099, -31, -886, -437, 70, -8470, -5670
44119, -30, -894, -442, -980, -8540, -6230
44139, -31, -906, -446, -1260, -8330, -6930
44159, -31, -910, -449, -700, -8540, -7070
44179, -30, -911, -449, 840, -9660, -6580
44199, -29, -904, -446, 3570, -11900, -5180
44219, -31, -894, -441, 6160, -14000, -3570
44239, -29, -886, -434, 5530, -14840, -3150
44259, -30, -876, -430, 3220, -14560, -3640
44279, -30, -871, -429, 2660, -14210, -3780
44299, -30, -873, -431, 3500, -13930, -3570
44319, -32, -879, -431, 4760, -13370, -3290
44339, -30, -890, -438, 3430, -9380, -4830
44359, -29, -900, -447, 1050, -7210, -5950
44379, -28, -908, -447, 1120, -6650, -5460
44399, -28, -911, -449, 2030, -7840, -3640
44419, -29, -907, -449, 2870, -9380, -1540
44439, -30, -899, -444, 3640, -9940, -140
44459, -30, -889, -441, 4130, -9450, 350
44479, -29, -881, -435, 5530, -8610, 770
44499, -30, -876, -430, 7000, -7350, 1260
44519, -30, -875, -430, 5460, -5250, 840
44539, -28, -876, -430, 910, -2170, -420
44559, -29, -882, -436, -2800, 490, -1330
44579, -29, -892, -441, -2660, 1680, -770
44599, -28, -904, -446, 560, 1610, 980
44619, -28, -911, -449, 2730, 1400, 2590
44639, -29, -909, -449, 1260, 2450, 2660
44659, -29, -903, -449, -1330, 4270, 1890
44679, -30, -895, -442, -1260, 5110, 2170
44699, -30, -888, -437, 770, 4480, 3850
44719, -31, -882, -435, 1260, 3500, 5670
44739, -33, -879, -434, -910, 4060, 5950
44759, -31, -878, -434, -3500, 6580, 4550
44779, -29, -879, -432, -3290, 9450, 3080
44799, -31, -885, -435, -1260, 11060, 2800
44819, -28, -893, -439, -1330, 11410, 3080
44839, -29, -900, -443, -4200, 11760, 3150
44859, -31, -907, -450, -7630, 12600, 2450
44879, -29, -908, -449, -7980, 12950, 2170
44899, -31, -905, -446, -4340, 11550, 3570
44919, -32, -899, -441, -1330, 9100, 5530
44939, -31, -890, -439, -2310, 8050, 5740
44959, -31, -882, -435, -4410, 9030, 4270
44979, -30, -876, -430, -4340, 10710, 2520
44999, -30, -875, -427, -3080, 11060, 1960
45019, -31, -879, -430, -3500, 9940, 2450
45039, -33, -889, -439, -6790, 9030, 2240
45059, -30, -899, -445, -9310, 9870, 560
45079, -30, -904, -445, -7350, 11200, -1120
45099, -31, -907, -443, -3570, 10850, -1470
45119, -31, -906, -445, -3080, 8190, -560
45139, -31, -902, -445, -5180, 4830, 490
45159, -30, -895, -442, -5530, 3150, 560
45179, -31, -885, -435, -3360, 2800, -210
45199, -31, -876, -428, -1120, 1750, -420
45219, -32, -877, -429, -1120, -70, -140
45239, -30, -882, -434, -3500, -1120, -700
45259, -31, -886, -437, -4970, -70, -2800
45279, -30, -890, -437, -3570, 1960, -5180
45299, -30, -896, -439, -2240, 2310, -6370
45319, -29, -902, -443, -3080, -140, -5600
45339, -29, -908, -449, -4270, -3990, -3850
45359, -31, -905, -448, -3290, -6580, -2940
45379, -31, -896, -438, 350, -7140, -3220
45399, -30, -885, -433, 2940, -7630, -3640
45419, -31, -879, -433, 2100, -9030, -3640
45439, -32, -879, -434, 140, -10290, -3570
45459, -31, -881, -434, -70, -10150, -4270
45479, -30, -883, -434, 1050, -8680, -5670
45499, -30, -889, -438, 1750, -7840, -6510
45519, -30, -898, -445, 420, -8820, -6020
45539, -30, -905, -450, -1260, -10290, -5320
45559, -29, -907, -448, 210, -10710, -5040
45579, -29, -902, -444, 3500, -10010, -5320
45599, -30, -894, -440, 4550, -9800, -5460
45619, -29, -887, -438, 3850, -11550, -4130
45639, -29, -883, -435, 3220, -14000, -2030
45659, -28, -879, -435, 3710, -14560, -1120
45679, -30, -876, -431, 5250, -12670, -1820
45699, -31, -879, -434, 5390, -9870, -3220
45719, -30, -889, -438, 2940, -7910, -4200
45739, -30, -899, -445, 840, -7070, -4200
45759, -28, -906, -448, 1470, -6440, -3640
45779, -29, -908, -446, 3220, -5320, -3360
45799, -30, -907, -447, 4060, -5040, -2590
45819, -29, -901, -445, 2800, -6300, -910
45839, -29, -893, -442, 1820, -7910, 1050
45859, -29, -883, -436, 4060, -8190, 2380
45879, -30, -875, -429, 6930, -6370, 2310
45899, -29, -873, -431, 6230, -3640, 1260
45919, -29, -879, -434, 2730, -1540, 560
45939, -29, -886, -437, -350, 0, 420
45959, -30, -896, -440, -490, 1610, 420
45979, -29, -902, -444, 1470, 3080, 770
45999, -29, -909, -448, 840, 3990, 1190
46019, -30, -908, -449, -1680, 4130, 1750
46039, -29, -901, -446, -1820, 3780, 2870
46059, -30, -892, -439, 770, 3640, 3850
46079, -30, -884, -435, 3640, 3990, 4550
46099, -31, -879, -432, -980, 4970, 4760
46119, -31, -877, -433, -4060, 6160, 4270
46139, -29, -878, -434, -3570, 7560, 3850
46159, -30, -882, -435, -1610, 9170, 3290
46179, -30, -882, -431, -910, 10570, 2730
46199, -29, -894, -438, -3080, 10850, 2800
46219, -29, -907, -449, -6650, 10920, 2590
46239, -29, -913, -450, -6860, 11550, 2100
46259, -31, -912, -449, -3570, 11200, 2660
46279, -31, -904, -446, -3360, 10570, 2660
46299, -29, -894, -441, -4550, 8960, 3220
46319, -31, -885, -438, -3010, 7140, 4550
46339, -31, -877, -433, -2590, 6580, 4480
46359, -29, -876, -432, -2170, 6860, 3780
46379, -30, -878, -430, -2170, 7490, 3010
46399, -31, -886, -436, -5880, 9520, 630
46419, -31, -892, -442, -9590, 11130, -1820
46439, -30, -898, -442, -8330, 11550, -2590
46459, -29, -904, -445, -5950, 10010, -2100
46479, -30, -906, -445, -3570, 6650, -280
46499, -29, -906, -445, -2310, 3080, 1680
46519, -28, -899, -443, -3640, 1750, 1260
46539, -31, -888, -435, -3710, 1820, 70
46559, -30, -880, -433, -2380, 1820, -840
46579, -30, -881, -433, -3920, 1680, -1960
46599, -30, -882, -435, -5180, 1260, -2800
46619, -31, -885, -436, -4410, 700, -3220
46639, -30, -889, -438, -3220, 560, -4060
46659, -31, -896, -438, -1260, -420, -3920
46679, -30, -902, -443, -1190, -2450, -3220
46699, -30, -904, -446, -3500, -3570, -3500
46719, -31, -902, -446, -4130, -3920, -4270
46739, -30, -895, -441, -2380, -4340, -4760
46759, -30, -890, -438, -630, -5320, -4830
46779, -30, -886, -437, 1260, -7700, -3570
46799, -30, -885, -435, 2170, -9800, -2450
46819, -31, -885, -435, 1260, -9940, -3080
46839, -31, -884, -436, 980, -8750, -4340
46859, -30, -886, -436, 490, -7630, -5460
46879, -30, -889, -440, -1610, -7420, -6160
46899, -31, -893, -441, -1540, -8540, -5530
46919, -30, -898, -445, 1400, -9240, -4620
46939, -29, -902, -443, 3990, -9380, -4340
46959, -29, -900, -441, 4970, -9590, -3920
46979, -30, -897, -444, 3150, -10150, -3430
46999, -30, -892, -442, 700, -10570, -3220
47019, -30, -886, -436, 1680, -10430, -2730
47039, -31, -884, -435, 3570, -9800, -2520
47059, -30, -885, -436, 3780, -9030, -2590
47079, -30, -889, -439, 4060, -8750, -2100
47099, -29, -890, -441, 4410, -8120, -1750
47119, -29, -893, -440, 4130, -6650, -2100
47139, -29, -894, -439, 3570, -5110, -2310
47159, -29, -894, -442, 2100, -4340, -2100
47179, -27, -895, -443, 770, -4690, -980
47199, -31, -894, -443, 1960, -5530, 770
47219, -28, -890, -439, 4620, -5460, 1890
47239, -29, -888, -437, 6020, -3920, 1750
47259, -28, -888, -438, 5180, -2030, 1260
47279, -28, -890, -439, 2380, -490, 840
47299, -28, -891, -439, 140, 700, 770
47319, -30, -891, -439, 630, 1470, 1400
47339, -28, -894, -442, 1330, 1820, 2170
47359, -30, -897, -445, 630, 2100, 2730
47379, -30, -895, -443, 700, 2380, 3290
47399, -28, -893, -440, 2170, 3430, 3430
47419, -30, -889, -435, 2870, 4690, 3150
47439, -29, -887, -437, 1680, 5460, 3150
47459, -29, -888, -438, -1400, 5670, 3360
47479, -29, -887, -438, -3500, 5810, 3640
47499, -30, -889, -437, -2450, 6020, 3990
47519, -29, -891, -440, -210, 6650, 4060
47539, -29, -896, -439, 0, 7420, 3640
47559, -30, -898, -441, -1610, 8400, 2730
47579, -30, -897, -440, -3080, 9240, 2030
47599, -30, -895, -440, -3570, 9310, 1890
47619, -30, -894, -438, -3920, 8330, 2450
47639, -30, -892, -440, -4480, 7140, 3010
47659, -29, -890, -439, -4410, 6300, 3220
47679, -31, -885, -435, -3080, 6160, 2940
47699, -30, -884, -433, -1750, 6440, 2240
47719, -31, -887, -434, -2030, 6860, 1330
47739, -31, -893, -440, -4270, 7280, 280
47759, -29, -897, -442, -6790, 7490, -770
47779, -31, -896, -440, -7420, 7210, -1190
47799, -31, -898, -443, -6160, 6090, -1050
47819, -30, -898, -443, -5110, 4340, -560
47839, -30, -897, -441, -4200, 2800, -210
47859, -31, -890, -439, -2800, 1960, -1400
47879, -31, -887, -436, -3500, 1680, -2170
47899, -30, -886, -435, -4830, 1050, -2660
47919, -31, -885, -435, -5810, 210, -2870
47939, -32, -889, -438, -5740, -420, -3220
47959, -30, -892, -439, -4480, -700, -3710
47979, -29, -896, -440, -2940, -1190, -3990
47999, -32, -897, -441, -2730, -1960, -4130
48019, -30, -899, -442, -3150, -2660, -4410
48039, -30, -897, -442, -3080, -3360, -4550
48059, -31, -890, -439, -2520, -4130, -4480
48079, -30, -887, -437, -2450, -5530, -3850
48099, -29, -885, -437, -1960, -7070, -3150
48119, -30, -887, -437, -630, -7700, -2870
48139, -29, -888, -437, 140, -6930, -3710
48159, -31, -890, -439, -350, -5530, -5180
48179, -30, -890, -437, -980, -4760, -6020
48199, -28, -892, -439, -1470, -5320, -5600
48219, -29, -898, -441, -770, -6720, -4410
48239, -29, -900, -445, 490, -7980, -3150
48259, -29, -898, -444, 1260, -8260, -2800
48279, -30, -892, -440, 1820, -7910, -2800
48299, -29, -888, -437, 1890, -7770, -2800
48319, -30, -885, -438, 2520, -7700, -2520
48339, -30, -886, -435, 4200, -7350, -2100
48359, -30, -889, -439, 3850, -6510, -2170
48379, -30, -891, -437, 1470, -5320, -2730
48399, -29, -894, -439, 210, -4830, -2450
48419, -30, -895, -444, 700, -5180, -1540
48439, -29, -898, -444, 3220, -5180, -700
48459, -30, -897, -440, 6300, -4690, 0
48479, -29, -898, -442, 5460, -3710, -140
48499, -29, -894, -440, 2450, -2800, -560
48519, -30, -891, -439, 2100, -2800, 280
48539, -32, -886, -438, 3080, -3010, 1400
48559, -30, -884, -435, 3570, -2940, 2030
48579, -29, -885, -436, 3990, -2520, 2520
48599, -29, -888, -439, 3710, -1400, 2310
48619, -31, -890, -438, 3570, 350, 1680
48639, -30, -893, -440, 3990, 1680, 1470
48659, -29, -894, -442, 2380, 2730, 1120
48679, -31, -896, -442, 0, 3150, 1120
48699, -29, -898, -444, -140, 2450, 2310
48719, -29, -897, -442, 910, 1820, 3430
48739, -31, -896, -442, 2660, 1610, 4060
48759, -30, -889, -437, 3780, 2030, 4270
48779, -31, -885, -436, 2310, 3290, 3290
48799, -31, -884, -436, 630, 4410, 2590
48819, -31, -887, -436, 70, 4760, 2520
48839, -30, -888, -436, -840, 4900, 2590
48859, -31, -893, -438, -1470, 4900, 2800
48879, -29, -893, -440, -2030, 4900, 2800
48899, -31, -895, -442, -2450, 5460, 2170
48919, -29, -898, -443, -1470, 5740, 1890
48939, -31, -899, -443, -490, 5880, 1610
48959, -29, -896, -442, -1330, 6160, 1120
48979, -30, -893, -438, -3150, 5740, 910
48999, -31, -889, -438, -4690, 4830, 1190
49019, -31, -884, -435, -4830, 3710, 1610
49039, -31, -882, -434, -2870, 2450, 2380
49059, -31, -886, -436, -1260, 2380, 2100
49079, -31, -892, -438, -2100, 3570, 630
49099, -31, -895, -440, -4270, 5320, -1540
49119, -30, -898, -442, -6300, 6580, -3150
49139, -30, -898, -443, -7210, 6160, -3500
49159, -30, -899, -443, -6440, 3920, -2240
49179, -31, -897, -443, -5040, 1330, -700
49199, -31, -894, -441, -3710, -490, 140
49219, -30, -892, -441, -2590, -910, -70
49239, -30, -888, -435, -2590, -70, -1470
49259, -31, -884, -432, -3500, 1120, -3080
49279, -30, -885, -437, -5320, 1610, -4130
49299, -30, -889, -440, -7280, 1190, -4480
49319, -30, -891, -438, -6650, -70, -3920
49339, -31, -890, -438, -3500, -1540, -2800
49359, -31, -893, -441, -2030, -2660, -2240
49379, -30, -895, -443, -2730, -3010, -2590
49399, -33, -896, -443, -3150, -2590, -3290
49419, -30, -896, -440, -3360, -1680, -4340
49439, -28, -894, -439, -3850, -1260, -5040
49459, -28, -893, -440, -3920, -2030, -4690
49479, -29, -891, -440, -3500, -3640, -3570
49499, -30, -890, -440, -2240, -5320, -2380
49519, -29, -890, -437, 630, -6090, -1610
49539, -32, -888, -435, 2310, -5670, -1820
49559, -30, -891, -440, 770, -4340, -3010
49579, -29, -894, -443, -2240, -3010, -4130
49599, -28, -894, -442, -3780, -2450, -4620
49619, -30, -891, -438, 1120, -4130, -2520
49639, -30, -891, -439, 2870, -5950, -770
49659, -29, -892, -441, 3150, -7000, 210
49679, -30, -891, -440, 3360, -6440, 140
49699, -30, -890, -438, 3010, -4340, -1190
49719, -32, -889, -437, 1120, -2380, -2590
49739, -30, -887, -437, -350, -1890, -2730
49759, -31, -893, -441, 140, -2660, -1680
49779, -29, -895, -443, 2310, -3640, -280
49799, -31, -897, -442, 4970, -4130, 770
49819, -31, -895, -439, 5810, -3920, 1050
49839, -28, -895, -441, 3920, -3500, 910
49859, -31, -893, -442, 1960, -2800, 630
49879, -30, -894, -441, 1890, -1820, 350
49899, -30, -890, -440, 2800, -910, 70
49919, -29, -888, -437, 3220, -560, 280
49939, -29, -889, -437, 2940, -1470, 1330
49959, -30, -890, -441, 3220, -2450, 2520
49979, -32, -892, -440, 4410, -2310, 2940
49999, -30, -891, -438, 5040, -840, 2240
50019, -29, -891, -436, 3080, 770, 1120
50039, -30, -891, -441, -140, 1610, 490
50059, -30, -894, -442, -560, 1470, 770
50079, -31, -893, -439, 2100, 980, 1750
50099, -30, -892, -439, 3780, 420, 2590
50119, -30, -895, -441, 3010, 210, 2800
50139, -29, -896, -442, 1190, 560, 2520
50159, -30, -892, -440, 0, 1540, 1750
50179, -30, -889, -437, 140, 2450, 1050
50199, -29, -886, -437, 420, 2730, 980
50219, -29, -887, -438, -560, 2450, 1120
50239, -31, -889, -438, -910, 1750, 1610
50259, -30, -890, -439, 0, 1400, 2030
50279, -31, -893, -439, 0, 1750, 1680
50299, -29, -897, -442, -1260, 2590, 770
50319, -30, -895, -442, -3220, 3640, -350
50339, -29, -893, -438, -4270, 4130, -1120
50359, -31, -891, -437, -3500, 3500, -700
50379, -30, -893, -441, -2380, 2030, 350
50399, -30, -889, -438, -1960, 910, 980
50419, -31, -889, -438, -1750, 630, 980
50439, -30, -889, -438, -2940, 1330, 70
50459, -30, -892, -440, -4550, 2590, -1330
50479, -30, -894, -441, -5250, 3500, -2310
50499, -30, -895, -441, -6020, 3920, -3080
50519, -31, -894, -440, -5810, 3430, -3010
50539, -31, -894, -439, -4130, 1820, -1820
50559, -30, -893, -440, -3220, 140, -700
50579, -30, -891, -439, -3290, -560, -420
50599, -30, -892, -439, -3920, -280, -910
50619, -29, -890, -439, -5040, 910, -2240
50639, -30, -889, -438, -5460, 1960, -3430
50659, -32, -889, -437, -5320, 1960, -3640
50679, -30, -890, -438, -5530, 1330, -3430
50699, -30, -891, -438, -4480, 210, -2660
50719, -30, -891, -439, -2380, -1050, -1540
50739, -30, -893, -442, -2310, -1400, -1470
50759, -31, -893, -440, -3640, -1050, -2100
50779, -31, -894, -442, -4340, -280, -2800
50799, -29, -894, -442, -4620, 630, -3710
50819, -30, -892, -439, -3570, 560, -3710
50839, -30, -890, -439, -2240, -630, -2660
50859, -30, -890, -439, -2240, -1890, -1820
50879, -31, -888, -439, -1330, -2940, -980
50899, -31, -888, -437, 350, -3220, -560
50919, -30, -889, -439, 140, -2520, -1120
50939, -30, -889, -437, -1260, -1470, -2030
50959, -31, -890, -440, -2170, -630, -2730
50979, -31, -893, -440, -2310, -280, -3080
50999, -29, -896, -441, -280, -1050, -2170
51019, -31, -895, -441, 2240, -2520, -630
51039, -30, -894, -443, 2660, -3640, 280
51059, -29, -894, -443, 1470, -3920, 490
51079, -31, -894, -442, 490, -3010, -210
51099, -29, -890, -439, 700, -1680, -1120
51119, -30, -887, -437, 2240, -1330, -1190
51139, -30, -888, -437, 3150, -2030, -420
51159, -29, -891, -441, 2380, -3220, 490
51179, -29, -891, -438, 2380, -3710, 1050
51199, -29, -891, -439, 3640, -2940, 840
51219, -28, -895, -441, 4060, -1960, 280
51239, -30, -897, -442, 2870, -1540, -70
51259, -31, -896, -443, 1190, -1540, -70
51279, -30, -894, -441, 1190, -1540, -70
51299, -29, -891, -437, 3220, -1470, 280
51319, -31, -888, -438, 4760, -2240, 1050
51339, -30, -890, -438, 4480, -3360, 2030
51359, -30, -890, -438, 3850, -3780, 1820
51379, -32, -886, -438, 2100, -980, 350
51399, -30, -887, -436, 1820, 140, -420
51419, -29, -888, -437, 1890, -140, -70
51439, -30, -890, -437, 1750, -1190, 840
51459, -31, -896, -442, 2310, -1680, 1470
51479, -30, -896, -441, 2730, -1330, 1330
51499, -29, -897, -441, 1890, -420, 630
51519, -29, -897, -441, 350, -70, 140
51539, -30, -896, -441, -420, 0, 140
51559, -31, -891, -441, -350, 0, 140
51579, -30, -888, -436, 350, -210, 420
51599, -31, -884, -434, 1120, -770, 1050
51619, -29, -885, -435, 840, -1470, 1540
51639, -31, -888, -436, 490, -1260, 1470
51659, -30, -889, -436, -560, 420, 140
51679, -29, -891, -439, -2870, 2590, -1680
51699, -29, -897, -441, -4410, 3780, -2660
51719, -30, -899, -442, -4480, 3080, -2100
51739, -30, -900, -442, -3150, 1330, -700
51759, -32, -896, -441, -1050, 0, 560
51779, -31, -892, -440, -840, -420, 840
51799, -30, -890, -439, -2450, 140, 210
51819, -30, -886, -436, -3220, 1050, -560
51839, -30, -884, -433, -3850, 1820, -1330
51859, -31, -881, -434, -4830, 2520, -1960
51879, -30, -885, -435, -5600, 2590, -2030
51899, -30, -889, -439, -5250, 2170, -1680
51919, -31, -897, -442, -3710, 1890, -1190
51939, -30, -902, -443, -2870, 1820, -1120
51959, -30, -903, -444, -4060, 2380, -1750
51979, -31, -902, -444, -6020, 3220, -2730
51999, -30, -896, -442, -6860, 3220, -2940
52019, -31, -890, -439, -5460, 2240, -2170
52039, -31, -885, -435, -3080, 420, -630
52059, -32, -885, -435, -1750, -1260, 770
52079, -32, -885, -436, -2100, -910, 420
52099, -30, -885, -438, -3290, 980, -1190
52119, -31, -885, -437, -4550, 3080, -2940
52139, -30, -889, -438, -5670, 3920, -3780
52159, -29, -895, -442, -5460, 3080, -3150
52179, -31, -899, -443, -3990, 1540, -1820
52199, -32, -900, -445, -2590, 420, -910
52219, -31, -898, -443, -1470, -350, -490
52239, -32, -894, -442, -420, -630, -210
52259, -30, -887, -438, -560, -560, -560
52279, -31, -887, -437, -1610, -280, -980
52299, -31, -888, -438, -2380, 140, -1470
52319, -30, -889, -438, -2240, 280, -1610
52339, -31, -890, -438, -630, -210, -1120
52359, -31, -891, -439, 420, -1330, -280
52379, -29, -894, -441, 350, -1960, -140
52399, -31, -898, -443, 1260, -1540, -350
52419, -30, -897, -442, 1470, -560, -1260
52439, -31, -893, -441, 0, -140, -1890
52459, -29, -889, -439, -420, -1190, -1190
52479, -29, -888, -439, 700, -3080, 280
52499, -30, -888, -438, 2450, -4130, 1120
52519, -30, -887, -436, 4130, -4270, 1330
52539, -31, -888, -437, 4270, -3640, 700
52559, -31, -892, -440, 3080, -2450, -350
52579, -30, -895, -440, 2240, -1610, -1120
52599, -30, -896, -441, 1470, -1190, -1400
52619, -30, -897, -443, 70, -1470, -1470
52639, -29, -897, -443, 630, -2940, -350
52659, -32, -894, -441, 3640, -4340, 980
52679, -29, -893, -439, 6020, -5180, 1750
52699, -30, -890, -437, 6160, -4970, 1540
52719, -30, -885, -438, 4200, -3920, 560
52739, -29, -884, -437, 1750, -2800, -490
52759, -31, -886, -436, 490, -2310, -840
52779, -30, -889, -438, 840, -2310, -700
52799, -29, -894, -441, 2030, -2730, -140
52819, -31, -898, -443, 3080, -3010, 350
52839, -28, -900, -442, 3220, -2870, 420
52859, -28, -897, -443, 2590, -2310, 0
52879, -30, -894, -439, 1400, -1540, -630
52899, -30, -888, -437, 350, -1190, -770
52919, -30, -884, -436, 280, -1890, -140
52939, -29, -884, -435, 1330, -2870, 980
52959, -30, -887, -436, 2170, -3430, 1680
52979, -29, -889, -439, 2030, -2590, 1330
52999, -30, -892, -439, 490, -560, -210
53019, -29, -895, -441, -1470, 1610, -1820
53039, -27, -898, -442, -2940, 2660, -2520
53059, -29, -897, -443, -3290, 2240, -2030
53079, -29, -895, -443, -2100, 700, -420
53099, -30, -891, -440, -840, -840, 1050
53119, -30, -890, -440, -70, -630, 1330
53139, -31, -888, -436, -1680, 1120, -70
53159, -30, -887, -436, -2940, 3010, -1400
53179, -30, -886, -435, -4270, 4060, -2170
53199, -30, -888, -437, -5390, 3990, -2030
53219, -29, -892, -439, -4970, 3010, -1050
53239, -29, -896, -443, -3500, 1960, 70
53259, -29, -899, -442, -2660, 1750, 350
53279, -30, -898, -444, -2870, 2310, -140
53299, -29, -897, -443, -4130, 3500, -1190
53319, -30, -892, -439, -5250, 4270, -1960
53339, -29, -888, -437, -5250, 3920, -1680
53359, -31, -886, -436, -4270, 2660, -560
53379, -30, -889, -438, -3360, 1610, 350
53399, -29, -892, -440, -3500, 1540, 280
53419, -30, -894, -442, -4200, 2870, -910
53439, -29, -895, -440, -4830, 4200, -2170
53459, -29, -892, -440, -5040, 4550, -2660
53479, -29, -891, -440, -4760, 3710, -2100
53499, -28, -892, -440, -4340, 2240, -1120
53519, -28, -892, -443, -3500, 1120, -420
53539, -31, -891, -439, -1680, 560, 70
53559, -30, -892, -439, -1330, 280, 140
53579, -31, -890, -439, -3010, 770, -770
53599, -32, -889, -439, -4410, 1610, -1820
53619, -30, -888, -438, -3990, 2100, -2450
53639, -30, -887, -436, -2030, 1610, -2170
53659, -30, -889, -436, 210, 0, -910
53679, -28, -891, -440, 350, -1540, 140
53699, -29, -895, -442, -1540, -1960, -70
53719, -30, -897, -442, -2380, -1400, -840
53739, -31, -895, -440, -770, -560, -1610
53759, -31, -895, -441, 420, -420, -1890
53779, -30, -893, -442, -210, -1120, -1750
53799, -29, -888, -438, -350, -2100, -1260
53819, -31, -884, -436, 1120, -3290, -350
53839, -30, -886, -437, 2940, -4690, 700
53859, -29, -889, -438, 3850, -5250, 1260
53879, -30, -890, -439, 2240, -4620, 350
53899, -30, -891, -441, 70, -2590, -1610
53919, -30, -892, -438, 210, -770, -3010
53939, -30, -892, -441, 1540, -1190, -2730
53959, -28, -895, -440, 2590, -3290, -1050
53979, -30, -900, -441, 3500, -5740, 980
53999, -30, -898, -444, 3500, -6370, 1470
54019, -29, -895, -440, 3290, -4970, 350
54039, -30, -888, -438, 3360, -3710, -700
54059, -32, -885, -435, 2870, -3430, -980
54079, -30, -885, -436, 2310, -3850, -560
54099, -30, -885, -438, 2100, -4410, 0
54119, -29, -890, -437, 2870, -4200, 70
54139, -30, -891, -439, 4130, -3850, 140
54159, -30, -896, -440, 4200, -3710, 210
54179, -31, -899, -444, 2310, -2940, -280
54199, -29, -899, -444, -210, -1750, -1260
54219, -29, -896, -444, -910, -840, -1960
54239, -30, -890, -440, 1190, -1120, -1330
54259, -29, -889, -437, 4200, -3010, 700
54279, -29, -887, -436, 4550, -4900, 2450
54299, -30, -885, -438, 2240, -4690, 2380
54319, -30, -884, -436, 420, -2590, 840
54339, -29, -885, -436, 420, 140, -910
54359, -30, -891, -437, 0, 1680, -1820
54379, -29, -895, -442, -1400, 1540, -1610
54399, -28, -897, -443, -2520, 1120, -1050
54419, -29, -897, -443, -2310, 910, -630
54439, -29, -897, -443, 280, 490, 210
54459, -29, -897, -439, 2170, -280, 1330
54479, -29, -892, -439, 350, -560, 1470
54499, -29, -887, -438, -3150, 560, 490
54519, -31, -882, -436, -5460, 2520, -1120
54539, -29, -880, -433, -4060, 3640, -1750
54559, -29, -884, -433, -490, 2870, -490
54579, -31, -888, -440, -280, 1190, 1050
54599, -29, -896, -444, -2870, 910, 1190
54619, -31, -899, -445, -4620, 2660, -210
54639, -29, -898, -443, -4970, 5250, -2240
54659, -30, -898, -441, -4620, 6300, -2940
54679, -28, -895, -445, -5250, 4690, -1820
54699, -30, -890, -440, -6300, 2380, -350
54719, -29, -884, -437, -4130, 1190, 770
54739, -30, -881, -432, 70, 770, 1470
54759, -33, -885, -434, 1120, 1050, 1330
54779, -30, -890, -439, -2730, 1820, 280
54799, -29, -892, -442, -7840, 3640, -1680
54819, -30, -893, -441, -9660, 6160, -3920
54839, -30, -897, -441, -7210, 6860, -4480
54859, -29, -899, -440, -3150, 4480, -2520
54879, -30, -901, -446, -1120, -1470, 1750
54899, -30, -898, -444, -2450, -560, 700
54919, -30, -890, -437, -2590, 1750, -1330
54939, -30, -887, -434, -3640, 2520, -2380
54959, -31, -882, -436, -5320, 1750, -2240
54979, -30, -884, -437, -5040, 560, -1540
54999, -29, -886, -437, -2100, -70, -1120
55019, -31, -889, -436, 1260, -210, -840
55039, -30, -892, -437, 1960, -910, -420
55059, -30, -898, -441, -1260, -1400, -490
55079, -30, -900, -445, -5180, -630, -1820
55099, -29, -898, -444, -5040, 700, -3220
55119, -30, -892, -439, -1400, 700, -3080
55139, -29, -888, -437, 1680, -1680, -1260
55159, -30, -886, -438, 3150, -5040, 1260
55179, -32, -888, -437, 3080, -6510, 2240
55199, -30, -888, -440, 1820, -4760, 560
55219, -30, -890, -437, 1120, -1820, -1820
55239, -31, -892, -437, -630, -210, -3220
55259, -28, -893, -441, -3150, -700, -3290
55279, -28, -896, -444, -1960, -2520, -1890
55299, -28, -896, -443, 2800, -4270, -140
55319, -30, -897, -441, 6790, -5110, 840
55339, -31, -896, -441, 7350, -5600, 1330
55359, -31, -892, -439, 3990, -5390, 980
55379, -31, -889, -439, -770, -3990, -560
55399, -28, -885, -439, -1820, -2380, -1890
55419, -32, -883, -434, 1400, -1750, -1960
55439, -31, -885, -434, 4480, -2940, -560
55459, -31, -890, -439, 5180, -5180, 1400
55479, -30, -899, -444, 4760, -5810, 2100
55499, -30, -900, -445, 3640, -3710, 560
55519, -30, -898, -441, 2240, -770, -1540
55539, -31, -895, -442, -140, 280, -2450
55559, -30, -893, -442, -1750, -1190, -1400
55579, -30, -892, -440, 420, -3360, 770
55599, -29, -889, -439, 4830, -4340, 2170
55619, -30, -885, -435, 7350, -3780, 2170
55639, -31, -885, -434, 5950, -2730, 1610
55659, -28, -889, -439, 1050, -1750, 700
55679, -28, -892, -442, -3360, 70, -910
55699, -29, -893, -443, -3150, 2170, -2170
55719, -29, -892, -440, -700, 3080, -2450
55739, -30, -895, -439, 1050, 1540, -910
55759, -29, -896, -442, 2100, -1680, 1960
55779, -30, -896, -444, 2100, -3500, 3500
55799, -31, -891, -439, 1750, -1680, 2240
55819, -30, -886, -434, 490, 1680, -280
55839, -31, -884, -436, -3010, 3780, -2100
55859, -28, -885, -438, -5880, 3430, -2030
55879, -31, -888, -438, -4480, 1680, -420
55899, -30, -889, -436, -420, 700, 840
