T [ms],AccX [mg],AccY [mg],AccZ [mg],GyroX [mdps],GyroY [mdps],GyroZ [mdps]
1477, 397, 237, 925, 3290, 7490, -4340
1497, 408, 244, 926, 3710, 5250, -3080
1517, 401, 232, 910, 2730, 2520, -1120
1537, 381, 225, 901, 420, 3080, 0
1557, 367, 224, 923, 910, 2450, 70
1577, 384, 230, 927, 420, 2100, -1540
1597, 403, 234, 896, -1960, 3080, -2310
1617, 416, 231, 866, -2940, 3710, -1820
1637, 398, 230, 882, -560, 2800, -350
1657, 394, 237, 899, 2660, 490, 840
1677, 387, 232, 908, 3150, 1890, 630
1697, 377, 225, 902, 2870, 1750, 1260
1717, 382, 221, 891, 2030, 2520, 1330
1737, 388, 221, 889, 1820, 1540, 1260
1757, 378, 220, 907, 2590, 0, 420
1777, 380, 224, 923, 2030, 280, -2030
1797, 386, 227, 902, -1400, 3500, -5600
1817, 397, 233, 899, -3710, 7210, -7910
1837, 403, 241, 914, -3080, 7070, -6930
1857, 393, 246, 908, -1680, 4060, -5110
1877, 376, 243, 924, -1330, -420, -3780
1897, 373, 238, 907, -2030, 980, -3290
1917, 376, 231, 897, -3430, 2170, -3640
1937, 372, 225, 892, -3500, 770, -3570
1957, 354, 213, 880, -3990, 2730, -4060
1977, 346, 202, 881, -3850, 6370, -5880
1997, 349, 209, 861, -2450, 7420, -9310
2017, 350, 213, 859, -1400, 5600, -12950
2037, 342, 203, 875, 1190, 3780, -15610
2057, 307, 182, 860, 3290, 5180, -19110
2077, 265, 154, 816, 3850, 6860, -25830
2097, 261, 173, 829, 8610, 910, -34930
2117, 311, 224, 873, 18410, -7560, -46970
2137, 349, 264, 858, 24920, -5880, -53970
2157, 315, 273, 842, 26180, 70, -58170
2177, 236, 278, 838, 29260, 1330, -59150
2197, 203, 286, 881, 36820, -5110, -60410
2217, 260, 352, 895, 46830, 5880, -57960
2237, 319, 340, 1022, 51170, 16870, -67060
2257, 339, 460, 952, 48720, 3430, -78890
2277, 262, 436, 898, 40950, -24640, -87570
2297, 304, 477, 893, 39550, -32900, -79100
2317, 396, 543, 812, 38570, -20510, -74270
2337, 335, 569, 874, 39620, -13930, -62930
2357, 319, 653, 924, 43330, -8400, -47880
2377, 357, 628, 1444, 45080, 2240, -29400
2397, 435, 715, 930, 72800, 90580, 28420
2417, 345, 661, 873, 33530, 47950, 2730
2437, 537, 694, 838, 17360, 72730, 18130
2457, 226, 484, 821, 28770, -10500, 42560
2477, 255, 551, 782, -10850, -70910, 35910
2497, 211, 419, 878, -29820, -35630, 12110
2517, 357, 549, 988, -24640, 21980, -9800
2537, 475, 9, 1171, 49630, 51730, -46270
2557, 313, 495, 1105, 74970, 35770, -89250
2577, 101, 638, 873, 90370, 3430, -169820
2597, -46, 813, 855, 87220, -38360, -125720
2617, 202, 593, 688, 76930, -87150, -31010
2637, 184, 774, 700, 86870, -130200, 81690
2657, 244, 768, 658, 126560, -85190, 2450
2677, 235, 492, 479, 165760, -55370, -68460
2697, 158, 575, 470, 184310, -28770, -94850
2717, 210, 576, 483, 175560, -980, -129990
2737, 253, 587, 534, 156660, -1190, -117740
2757, 121, 631, 463, 145390, -4060, -117530
2777, 16, 675, 331, 147630, -8750, -130340
2797, -24, 749, 290, 139720, -22190, -130690
2817, -72, 778, 296, 94080, -32900, -131250
2837, -154, 805, 245, 70210, -27580, -145880
2857, -210, 874, 237, 61110, -24500, -155190
2877, -288, 959, 227, 52500, -24500, -155470
2897, -271, 923, 227, 42910, -21770, -145950
2917, -331, 916, 196, 38710, -21700, -138670
2937, -438, 931, 154, 32620, -21770, -137270
2957, -482, 959, 170, 17010, -28350, -124110
2977, -497, 881, 159, -3150, -31080, -105280
2997, -457, 852, 181, -9380, -24220, -96390
3017, -491, 782, 167, 1190, -20020, -99610
3037, -550, 843, 155, 5320, -18200, -106050
3057, -596, 706, 103, 6230, -16450, -114870
3077, -627, 748, 76, -980, -11620, -113120
3097, -614, 817, 129, -1330, -6510, -104720
3117, -586, 725, 189, 5250, 16100, -118300
3137, -555, 746, 246, 23240, 42700, -134540
3157, -617, 726, 202, 29330, 34020, -124880
3177, -682, 626, 119, 39690, 24780, -119420
3197, -660, 621, 21, 49630, 25690, -120540
3217, -723, 575, 98, 49420, 54810, -162120
3237, -785, 439, 65, 17150, 71610, -178640
3257, -803, 465, 76, 17990, 58730, -163240
3277, -876, 344, 76, 13090, 51380, -167860
3297, -1003, 233, 38, 14140, 44870, -172620
3317, -1121, 293, -60, 21980, 34230, -171150
3337, -1165, 333, -102, 24430, 38640, -173180
3357, -1083, 294, -53, 40600, 56140, -181300
3377, -1063, 254, -36, 38150, 58520, -171570
3397, -998, 289, -6, 8750, 38920, -128170
3417, -926, 184, -2, -11130, 16800, -85260
3437, -976, 111, -9, -21280, 3010, -64610
3457, -1003, 55, -35, -13650, 4970, -64470
3477, -1078, 11, -32, 9310, 18130, -95620
3497, -1142, 50, -52, 34160, 28770, -139300
3517, -1208, -2, -137, 45500, 31150, -147210
3537, -1196, -43, -203, 28280, 25130, -119770
3557, -1126, -143, -153, 24850, 28070, -98210
3577, -1032, -100, -87, 30660, 34370, -102270
3597, -1008, -107, -25, 47880, 30940, -114520
3617, -1118, -166, -114, 41300, 11830, -124320
3637, -1132, -217, -158, 32830, -3920, -123900
3657, -1151, -317, -158, 30800, -8680, -111160
3677, -1037, -310, -161, 72170, 47320, -67410
3697, -925, -276, 46, 124460, 100240, -50750
3717, -1049, -458, -145, 138110, 106680, -53060
3737, -912, -549, -347, 99750, 74130, -81900
3757, -776, -459, -201, 186060, 115850, -124040
3777, -960, -421, -47, 214970, 188650, -100940
3797, -919, -559, -302, 101920, 163450, -77210
3817, -646, -868, -535, 23800, 89320, -95620
3837, -597, -901, -410, 40600, 131180, -204960
3857, -560, -904, -516, 92890, 240240, -356930
3877, -290, -752, -346, 95620, 275030, -286720
3897, -378, -650, -456, 99470, 149240, 24640
3917, -673, -622, -600, 73710, 66570, 269080
3937, -416, -678, -528, 51030, 177380, 308980
3957, -338, -601, -431, 126000, 320740, 195300
3977, -343, -508, -407, 267540, 448980, 58310
3997, -331, -473, -388, 390390, 539000, -3990
4017, -315, -566, -408, 462140, 586040, 16310
4037, -451, -845, -547, 438900, 619290, 124530
4057, -652, -1185, -739, 266770, 717850, 259420
4077, -609, -1156, -682, 105980, 820050, 315910
4097, -473, -928, -549, 217420, 718550, 345030
4117, -457, -813, -531, 384020, 530320, 429940
4137, -490, -776, -557, 350490, 510930, 486500
4157, -500, -697, -532, 276850, 598990, 464030
4177, -469, -572, -430, 269570, 696220, 379750
4197, -410, -495, -326, 290430, 750610, 302680
4217, -421, -606, -363, 288680, 708820, 319200
4237, -512, -863, -529, 227290, 622860, 401310
4257, -555, -971, -577, 159880, 592620, 419720
4277, -507, -900, -482, 171920, 622300, 323260
4297, -458, -878, -417, 235480, 625380, 216790
4317, -460, -931, -433, 237790, 563640, 205660
4337, -452, -912, -420, 164150, 489720, 244720
4357, -431, -847, -372, 71960, 452200, 246750
4377, -390, -768, -321, 27370, 407540, 215390
4397, -338, -707, -289, 68670, 305550, 182490
4417, -312, -679, -271, 135870, 189210, 153020
4437, -313, -686, -266, 144270, 127190, 118790
4457, -337, -746, -277, 84000, 122780, 80290
4477, -375, -838, -309, 8610, 117810, 51100
4497, -422, -973, -371, -36050, 73150, 31360
4517, -460, -1094, -443, -43120, -11620, 17220
4537, -451, -1096, -454, -16310, -123760, 3920
4557, -414, -990, -398, 13790, -222810, -21140
4577, -430, -943, -397, -34720, -255710, -57120
4597, -440, -906, -418, -134330, -277200, -64400
4617, -423, -829, -406, -160720, -348950, -60830
4637, -405, -764, -390, -117740, -425810, -91140
4657, -387, -713, -368, -85820, -463960, -146230
4677, -393, -731, -373, -86590, -473200, -200550
4697, -452, -872, -453, -126210, -467670, -234780
4717, -511, -1026, -555, -182140, -476350, -236390
4737, -512, -1032, -558, -196070, -510790, -235410
4757, -478, -924, -494, -167160, -528780, -274750
4777, -459, -846, -472, -159740, -524090, -321510
4797, -444, -807, -477, -181860, -550060, -314160
4817, -432, -777, -478, -212660, -591430, -272650
4837, -399, -719, -458, -242830, -604450, -241920
4857, -358, -654, -415, -250040, -594230, -230790
4877, -361, -682, -414, -255430, -505260, -244790
4897, -391, -781, -439, -239820, -468160, -245070
4917, -400, -845, -460, -185570, -467740, -238700
4937, -381, -864, -470, -127680, -489790, -214270
4957, -360, -883, -474, -114100, -482370, -177100
4977, -370, -945, -490, -149380, -414820, -152740
4997, -383, -998, -508, -166460, -346920, -133490
5017, -358, -941, -476, -122080, -318710, -113470
5037, -304, -813, -407, -61600, -294350, -99680
5057, -266, -737, -363, -32130, -252140, -80500
5077, -262, -753, -372, -31220, -198660, -45780
5097, -296, -846, -428, -42280, -128310, -11270
5117, -313, -884, -431, -28140, -43680, -6160
5137, -300, -853, -407, 23800, 27720, -19390
5157, -298, -868, -407, 69440, 73780, -7910
5177, -327, -940, -445, 76090, 112000, 35770
5197, -349, -974, -473, 71400, 153230, 80080
5217, -341, -905, -451, 80570, 202930, 102270
5237, -332, -825, -414, 97650, 256200, 109900
5257, -331, -789, -402, 120260, 292040, 123690
5277, -338, -798, -414, 146440, 313180, 143430
5297, -346, -792, -415, 163170, 339080, 159950
5317, -356, -776, -416, 170660, 372260, 171430
5337, -373, -790, -428, 176610, 404740, 178850
5357, -391, -822, -435, 179970, 439250, 176610
5377, -400, -850, -433, 182630, 463190, 175210
5397, -404, -857, -439, 184730, 454860, 196980
5417, -402, -841, -439, 183050, 435120, 221900
5437, -398, -810, -415, 178010, 436030, 220850
5457, -402, -815, -412, 169540, 447930, 205800
5477, -389, -790, -391, 167300, 442960, 194880
5497, -365, -737, -360, 178080, 415170, 190190
5517, -357, -715, -346, 177310, 385700, 191030
5537, -368, -749, -353, 158270, 371560, 184660
5557, -377, -800, -364, 145180, 362180, 163310
5577, -381, -838, -366, 144130, 341390, 139510
5597, -377, -845, -357, 142310, 308980, 123340
5617, -372, -850, -352, 129850, 270060, 114380
5637, -372, -872, -356, 110390, 227010, 108430
5657, -382, -906, -366, 81830, 188650, 100240
5677, -377, -892, -358, 53690, 154000, 84980
5697, -354, -832, -330, 46970, 108920, 63420
5717, -339, -793, -313, 50050, 56910, 41650
5737, -337, -796, -316, 41090, 11410, 22260
5757, -350, -838, -338, 19390, -24990, 4340
5777, -363, -868, -352, -6860, -52360, -16590
5797, -370, -870, -350, -30590, -75110, -42210
5817, -375, -869, -357, -43610, -109900, -63280
5837, -368, -856, -359, -42840, -162470, -76230
5857, -359, -828, -354, -42840, -212520, -88760
5877, -360, -809, -357, -66640, -243950, -97650
5897, -360, -798, -366, -101570, -264810, -101500
5917, -360, -789, -364, -120050, -280980, -114310
5937, -368, -799, -374, -120960, -294210, -136290
5957, -368, -804, -379, -114170, -310590, -156170
5977, -363, -806, -378, -108570, -326340, -172620
5997, -375, -828, -394, -120680, -335650, -178080
6017, -385, -861, -421, -143290, -348740, -166110
6037, -384, -866, -430, -150220, -367150, -153440
6057, -373, -851, -422, -142940, -372960, -156030
6077, -360, -838, -414, -137760, -363650, -164290
6097, -352, -822, -400, -137900, -349510, -167370
6117, -356, -841, -412, -142800, -336420, -161070
6137, -362, -873, -432, -145110, -332780, -140770
6157, -353, -883, -433, -131250, -330400, -124530
6177, -345, -880, -421, -110880, -310310, -126070
6197, -338, -876, -415, -100380, -278320, -127190
6217, -333, -872, -411, -98140, -251790, -112630
6237, -324, -857, -405, -93730, -232050, -90160
6257, -312, -839, -402, -80640, -215740, -67060
6277, -301, -816, -391, -60970, -197120, -46410
6297, -293, -801, -374, -43750, -160510, -37940
6317, -299, -824, -381, -33250, -107380, -38430
6337, -315, -865, -398, -22260, -61810, -30800
6357, -320, -891, -410, -2870, -30240, -15960
6377, -321, -907, -416, 21560, -3010, -2240
6397, -322, -907, -416, 41790, 22680, 14980
6417, -330, -900, -415, 47320, 56140, 33600
6437, -338, -902, -418, 40810, 97860, 49910
6457, -340, -902, -419, 43540, 129850, 65450
6477, -335, -881, -410, 65590, 148820, 75250
6497, -331, -862, -402, 93450, 165270, 80010
6517, -337, -851, -402, 105350, 184870, 90090
6537, -340, -833, -390, 96880, 212310, 103250
6557, -344, -828, -385, 87290, 241990, 109760
6577, -348, -836, -390, 89670, 257250, 115010
6597, -346, -835, -393, 103810, 254310, 124040
6617, -346, -832, -390, 121030, 258090, 125370
6637, -357, -843, -392, 113120, 277060, 120400
6657, -365, -852, -386, 98350, 292180, 114240
6677, -361, -843, -373, 95760, 285880, 112630
6697, -356, -841, -373, 100870, 257460, 121030
6717, -353, -836, -376, 103950, 229740, 126280
6737, -354, -839, -377, 103040, 218820, 116060
6757, -361, -862, -382, 94780, 221410, 95690
6777, -365, -877, -374, 85190, 222530, 74270
6797, -361, -868, -358, 80010, 205100, 62860
6817, -358, -870, -359, 72100, 166390, 68390
6837, -361, -887, -371, 60970, 124320, 75810
6857, -361, -897, -379, 51520, 99190, 65170
6877, -360, -892, -372, 42210, 89110, 40040
6897, -349, -857, -349, 36260, 75040, 15330
6917, -336, -819, -331, 30520, 47040, 2380
6937, -334, -810, -328, 17990, 11900, 280
6957, -339, -826, -342, 3430, -22750, -350
6977, -344, -848, -358, -5460, -49280, -10010
6997, -349, -861, -362, -13440, -59640, -32830
7017, -347, -849, -352, -21000, -63770, -60410
7037, -343, -832, -340, -26180, -83510, -74060
7057, -347, -841, -352, -35140, -120750, -68040
7077, -352, -866, -375, -45430, -157570, -58660
7097, -350, -869, -382, -53130, -175770, -63700
7117, -351, -862, -378, -64260, -173950, -80080
7137, -353, -858, -377, -74760, -166250, -98280
7157, -355, -864, -374, -75530, -171220, -109060
7177, -361, -889, -391, -69440, -195020, -104860
7197, -359, -904, -409, -67340, -221200, -92470
7217, -351, -891, -404, -75180, -224980, -89600
7237, -350, -880, -398, -92820, -206570, -95200
7257, -348, -863, -391, -102480, -192290, -97440
7277, -340, -840, -380, -91980, -194390, -95550
7297, -329, -830, -379, -74690, -204470, -88270
7317, -326, -835, -384, -66710, -207830, -77000
7337, -320, -838, -384, -69790, -192500, -70770
7357, -326, -847, -387, -76580, -165200, -68460
7377, -327, -856, -389, -75460, -143780, -62370
7397, -324, -852, -385, -58100, -132300, -57120
7417, -320, -860, -386, -38430, -122710, -50820
7437, -322, -875, -394, -29680, -110460, -37100
7457, -321, -876, -396, -28140, -90300, -23450
7477, -324, -880, -393, -29190, -60340, -16380
7497, -331, -892, -401, -25760, -33040, -9100
7517, -325, -883, -395, -10570, -16170, -420
7537, -315, -860, -386, 11200, -4620, 7770
7557, -315, -851, -384, 20720, 10640, 20440
7577, -320, -851, -384, 16100, 33390, 35770
7597, -323, -852, -383, 13020, 62370, 42280
7617, -330, -862, -388, 22400, 85050, 43610
7637, -326, -855, -381, 41090, 96180, 46830
7657, -321, -843, -376, 57820, 104090, 51380
7677, -327, -843, -379, 59290, 115850, 60480
7697, -333, -848, -378, 48370, 134540, 68810
7717, -341, -861, -384, 43330, 150990, 71330
7737, -344, -879, -390, 52360, 155330, 71610
7757, -341, -873, -384, 69090, 152180, 70560
7777, -337, -860, -380, 78330, 151130, 70000
7797, -344, -859, -379, 68040, 157290, 73430
7817, -347, -858, -372, 50260, 167930, 74130
7837, -349, -870, -376, 47530, 169820, 68460
7857, -351, -890, -385, 59780, 153300, 66220
7877, -347, -883, -381, 71610, 134050, 64540
7897, -345, -869, -370, 68950, 130690, 56350
7917, -345, -858, -362, 51240, 132510, 51170
7937, -340, -842, -352, 36540, 123690, 51030
7957, -334, -827, -346, 35140, 104650, 48720
7977, -329, -814, -345, 40460, 79660, 46480
7997, -326, -813, -349, 44940, 55930, 43750
8017, -335, -842, -357, 42070, 46130, 33670
8037, -352, -889, -371, 28070, 53690, 14910
8057, -362, -926, -383, 15540, 58520, -3150
8077, -363, -945, -392, 13300, 40180, -8400
8097, -354, -915, -383, 13650, 6650, -2800
8117, -345, -880, -371, 9800, -21000, 140
8137, -338, -852, -361, -1680, -35280, -3500
8157, -332, -828, -349, -14770, -40950, -12180
8177, -332, -821, -345, -22610, -44380, -24570
8197, -332, -831, -355, -23310, -54460, -34650
8217, -337, -853, -365, -19040, -72310, -39480
8237, -341, -875, -375, -17710, -86170, -44100
8257, -350, -903, -388, -25060, -90230, -49350
8277, -352, -902, -386, -38500, -90580, -51940
8297, -341, -867, -372, -47040, -93940, -53340
8317, -333, -840, -369, -46130, -105840, -51380
8337, -321, -815, -358, -41510, -123620, -44170
8357, -320, -813, -360, -37730, -130760, -43610
8377, -329, -846, -374, -54180, -105490, -51800
8397, -335, -862, -378, -52850, -94640, -56840
8417, -336, -873, -379, -41930, -92750, -59360
8437, -340, -897, -392, -33530, -98840, -51730
8457, -339, -906, -397, -30310, -102200, -42210
8477, -341, -911, -400, -35070, -95690, -34790
8497, -342, -909, -401, -41790, -83300, -28840
8517, -333, -876, -384, -39060, -71120, -27580
8537, -323, -845, -371, -28840, -65590, -24220
8557, -320, -840, -373, -19880, -63910, -15260
8577, -318, -849, -377, -14350, -52850, -11690
8597, -322, -857, -378, -13090, -32690, -11900
8617, -323, -862, -381, -13230, -15330, -7210
8637, -324, -855, -375, -10920, -1330, -1750
8657, -322, -852, -372, -7490, 9450, 4970
8677, -323, -853, -375, -1050, 12950, 15540
8697, -319, -843, -373, 7700, 16660, 23730
8717, -320, -846, -376, 10570, 31360, 25270
8737, -330, -866, -383, 8330, 53060, 22750
8757, -337, -881, -383, 12530, 68670, 19390
8777, -336, -883, -381, 22470, 70350, 22750
8797, -333, -880, -382, 28000, 65240, 33530
8817, -332, -864, -376, 25200, 66430, 41720
8837, -331, -853, -372, 19250, 73780, 44590
8857, -330, -845, -369, 18690, 79450, 43960
8877, -327, -833, -362, 27020, 81620, 38500
8897, -329, -837, -359, 34440, 81340, 34230
8917, -335, -859, -370, 34160, 78960, 35630
8937, -339, -876, -377, 30520, 77070, 37170
8957, -343, -884, -376, 27580, 77630, 34160
8977, -345, -887, -378, 25760, 74900, 31850
8997, -341, -878, -373, 28350, 65310, 31150
9017, -334, -860, -364, 31710, 53410, 30380
9037, -330, -840, -358, 27720, 44030, 31850
9057, -329, -832, -356, 20580, 37660, 32760
9077, -328, -823, -350, 18410, 33460, 28210
9097, -317, -798, -337, 22120, 28350, 20930
9117, -309, -778, -332, 27720, 14700, 21350
9137, -305, -765, -330, 30030, -980, 27020
9157, -316, -808, -352, 25620, -3570, 27020
9177, -340, -877, -381, 18620, 8470, 17010
9197, -357, -940, -405, 21070, 24500, -2520
9217, -362, -969, -410, 27650, 33460, -18900
9237, -362, -968, -403, 24360, 31920, -20440
9257, -356, -946, -401, 10430, 19460, -7280
9277, -347, -910, -392, -5460, 1750, 11270
9297, -329, -846, -369, -11970, -7840, 17150
9317, -312, -791, -343, -7560, -4200, 4970
9337, -310, -780, -337, -3430, 6580, -11830
9357, -321, -811, -346, -6300, 18130, -24500
9377, -338, -864, -365, -10570, 23940, -31850
9397, -351, -918, -390, -10220, 15820, -30380
9417, -355, -936, -397, -7770, -1540, -23170
9437, -344, -897, -380, -7700, -13720, -19810
9457, -328, -840, -357, -14280, -17360, -20160
9477, -308, -770, -328, -25270, -22470, -15610
9497, -297, -731, -315, -31010, -32410, -8750
9517, -294, -724, -317, -30940, -41930, -4690
9537, -297, -737, -325, -27860, -43750, -7910
9557, -306, -771, -334, -23800, -33670, -21560
9577, -334, -860, -366, -25480, -15750, -38220
9597, -374, -987, -420, -33320, -770, -49420
9617, -406, -1108, -468, -31710, -490, -56770
9637, -421, -1174, -496, -17780, -22610, -56280
9657, -397, -1088, -465, -10010, -59780, -41440
9677, -349, -910, -389, -21070, -87640, -24360
9697, -304, -745, -326, -41090, -100940, -11480
9717, -269, -641, -287, -47880, -113050, -350
9737, -265, -629, -288, -40740, -118440, 2100
9757, -287, -705, -323, -34580, -106750, -7070
9777, -317, -822, -365, -25200, -78190, -31080
9797, -362, -995, -426, -8750, -43400, -64190
9817, -405, -1147, -475, -1890, -18830, -82460
9837, -419, -1174, -489, -15820, -14630, -72100
9857, -386, -1041, -449, -38780, -41090, -36470
9877, -335, -868, -392, -38150, -101570, 13370
9897, -288, -727, -338, -16170, -145180, 40110
9917, -255, -638, -292, -210, -131530, 25270
9937, -262, -653, -294, 1750, -86730, -980
9957, -294, -737, -324, -10990, -36960, -18200
9977, -324, -841, -362, -19880, 1400, -26880
9997, -355, -960, -413, -6580, 15330, -31290
10017, -377, -1056, -458, 19250, 4200, -25060
10037, -374, -1053, -452, 35770, -12250, -9030
10057, -357, -978, -416, 30030, -9100, -70
10077, -341, -902, -393, 8470, 2170, 9240
10097, -317, -824, -363, -2450, -3150, 28980
10117, -298, -768, -339, 24570, -4060, 30380
10137, -292, -745, -334, 33040, 8260, 27300
10157, -290, -738, -328, 33810, 31010, 20720
10177, -305, -782, -344, 28980, 58100, 13370
10197, -335, -873, -384, 26600, 76930, 10570
10217, -355, -951, -409, 35420, 83930, 7980
10237, -362, -989, -421, 45500, 79100, 12460
10257, -359, -970, -415, 42770, 71260, 25270
10277, -346, -917, -394, 26320, 70630, 36890
10297, -337, -872, -377, 12110, 70560, 45360
10317, -330, -832, -364, 12320, 68950, 44940
10337, -318, -798, -348, 24010, 68460, 35420
10357, -312, -787, -339, 35000, 68810, 25900
10377, -316, -804, -346, 34720, 73850, 18550
10397, -327, -836, -354, 24080, 84630, 11410
10417, -342, -882, -371, 10850, 91070, 7700
10437, -362, -936, -397, 2310, 83930, 9450
10457, -358, -929, -389, 11410, 64680, 7770
10477, -340, -885, -369, 26670, 36540, 8190
10497, -332, -858, -366, 25410, 11830, 16520
10517, -327, -841, -362, 8960, 9590, 15400
10537, -332, -847, -359, -10080, 26810, -1260
10557, -343, -867, -364, -20930, 37940, -17500
10577, -341, -864, -356, -13790, 26950, -26950
10597, -331, -845, -348, 980, -70, -28490
10617, -330, -849, -355, 350, -28140, -18550
10637, -334, -862, -370, -14840, -43750, -9030
10657, -338, -878, -377, -27860, -42630, -14070
10677, -347, -895, -382, -34230, -32830, -29540
10697, -348, -899, -378, -30940, -30660, -43680
10717, -344, -891, -371, -22260, -41930, -49490
10737, -338, -882, -370, -24220, -60200, -41720
10757, -336, -871, -376, -37310, -78820, -24430
10777, -332, -855, -375, -46760, -87710, -16170
10797, -331, -848, -372, -47950, -81060, -25480
10817, -330, -844, -362, -41930, -69090, -42420
10837, -328, -843, -358, -30940, -68530, -51240
10857, -328, -855, -367, -25900, -79520, -44240
10877, -332, -874, -380, -32060, -88340, -29820
10897, -336, -884, -390, -39200, -88550, -20510
10917, -334, -882, -387, -37800, -81550, -21700
10937, -327, -859, -375, -28840, -71470, -28910
10957, -321, -846, -365, -19180, -65380, -31780
10977, -320, -845, -366, -14770, -65520, -24500
10997, -326, -863, -381, -16520, -65030, -12110
11017, -329, -877, -390, -17990, -57960, -3850
11037, -328, -874, -384, -11550, -44520, -5530
11057, -323, -862, -374, -1260, -27930, -11970
11077, -321, -856, -369, 5950, -15890, -11900
11097, -322, -865, -381, 9450, -13580, -420
11117, -326, -877, -388, 10430, -11970, 13650
11137, -329, -878, -388, 10710, 0, 19180
11157, -328, -868, -382, 15260, 17220, 17220
11177, -321, -851, -371, 23660, 31780, 14560
11197, -322, -848, -368, 30030, 41790, 16100
11217, -327, -867, -380, 31710, 45290, 25480
11237, -332, -873, -383, 32060, 47670, 35770
11257, -331, -875, -384, 33460, 57400, 37520
11277, -336, -876, -382, 34510, 71120, 34580
11297, -332, -870, -374, 38430, 81900, 30450
11317, -332, -868, -371, 42630, 85400, 30240
11337, -333, -870, -377, 42350, 80360, 39340
11357, -334, -865, -377, 38780, 76160, 48020
11377, -332, -855, -371, 35630, 81410, 45990
11397, -333, -850, -366, 34720, 90300, 37870
11417, -329, -842, -359, 37800, 92400, 31570
11437, -329, -848, -360, 42140, 87220, 29120
11457, -338, -869, -373, 38850, 80640, 31360
11477, -341, -876, -375, 29750, 76300, 34020
11497, -340, -873, -370, 25760, 75040, 28770
11517, -339, -869, -366, 26040, 72660, 19950
11537, -335, -856, -359, 26460, 65590, 14140
11557, -336, -859, -359, 23940, 55650, 11410
11577, -340, -872, -368, 15330, 44940, 12390
11597, -341, -876, -370, 7700, 35560, 10990
11617, -342, -877, -368, 6090, 28910, 2240
11637, -340, -871, -364, 5530, 22540, -7910
11657, -338, -863, -358, 2100, 14630, -14910
11677, -342, -870, -365, -5390, 4270, -17640
11697, -341, -877, -372, -13370, -10570, -15890
11717, -337, -871, -370, -16520, -26180, -16310
11737, -335, -857, -361, -17780, -34930, -23240
11757, -332, -843, -354, -22400, -36470, -33390
11777, -330, -840, -354, -28910, -40530, -39130
11797, -334, -852, -364, -32970, -53550, -37450
11817, -331, -851, -366, -34720, -69370, -33180
11837, -329, -851, -367, -33390, -80220, -33390
11857, -329, -853, -369, -32760, -84140, -37030
11877, -332, -858, -365, -42700, -72240, -48720
11897, -338, -874, -373, -45500, -75460, -45360
11917, -341, -890, -387, -41090, -89040, -36050
11937, -339, -892, -388, -34930, -94990, -33600
11957, -339, -892, -387, -33670, -89740, -35840
11977, -335, -886, -385, -35420, -81480, -36750
11997, -331, -875, -380, -37940, -74550, -34580
12017, -331, -870, -375, -38500, -72450, -27580
12037, -328, -859, -376, -32130, -75250, -19460
12057, -323, -850, -375, -22820, -73990, -15610
12077, -321, -849, -373, -18130, -62160, -16590
12097, -321, -852, -373, -16310, -45150, -18900
12117, -321, -856, -371, -13300, -33810, -15890
12137, -322, -856, -375, -7910, -30520, -6580
12157, -321, -857, -376, -980, -27300, 2310
12177, -321, -856, -377, 4690, -17640, 6580
12197, -325, -871, -384, 7980, -2940, 8540
12217, -329, -876, -384, 11690, 13650, 8540
12237, -330, -879, -382, 16870, 26180, 10290
12257, -329, -880, -380, 22400, 31290, 17640
12277, -329, -881, -385, 25760, 35210, 26390
12297, -331, -879, -384, 26180, 43190, 32200
12317, -331, -872, -381, 27020, 54250, 33880
12337, -329, -862, -375, 31500, 64120, 32760
12357, -328, -851, -367, 36680, 70770, 32340
12377, -327, -845, -366, 38080, 73640, 36190
12397, -330, -856, -372, 36540, 74270, 42490
12417, -332, -860, -375, 36260, 78050, 43330
12437, -335, -866, -373, 39060, 84280, 38010
12457, -334, -868, -375, 42000, 86800, 34510
12477, -335, -866, -370, 42490, 86520, 33250
12497, -335, -867, -368, 37730, 85400, 33950
12517, -339, -872, -375, 32130, 79590, 38010
12537, -338, -871, -374, 31500, 71820, 38710
12557, -335, -862, -367, 33180, 69860, 31290
12577, -334, -854, -362, 31570, 70700, 22750
12597, -335, -853, -359, 28280, 65800, 19250
12617, -336, -858, -361, 24430, 56840, 18340
12637, -338, -870, -368, 18830, 48230, 17430
12657, -341, -876, -369, 15750, 39900, 13860
12677, -337, -871, -369, 15540, 32900, 6440
12697, -337, -863, -360, 12670, 28070, -1750
12717, -336, -861, -359, 5950, 21280, -6090
12737, -334, -856, -359, 0, 8540, -6020
12757, -334, -856, -363, -3920, -6020, -5670
12777, -336, -857, -364, -7350, -16030, -9030
12797, -335, -861, -363, -9660, -19390, -18550
12817, -337, -868, -364, -12950, -20090, -29260
12837, -340, -879, -368, -17430, -25830, -33880
12857, -340, -879, -371, -20720, -38710, -32340
12877, -338, -876, -374, -24360, -52850, -28490
12897, -336, -872, -375, -29400, -61670, -26950
12917, -333, -863, -370, -32480, -63140, -31920
12937, -333, -863, -368, -34160, -61040, -39480
12957, -332, -861, -368, -35840, -62930, -41720
12977, -333, -862, -370, -35910, -70210, -38850
12997, -334, -868, -378, -35910, -77070, -34860
13017, -335, -879, -383, -36750, -79940, -32130
13037, -334, -877, -379, -36470, -77140, -33600
13057, -329, -864, -370, -36050, -69860, -37800
13077, -328, -851, -368, -36470, -67200, -35630
13097, -323, -844, -370, -34510, -72660, -26320
13117, -323, -848, -371, -30450, -75180, -20020
13137, -322, -851, -373, -27440, -69090, -19180
13157, -323, -859, -378, -24360, -59570, -19250
13177, -324, -868, -375, -21630, -47530, -20300
13197, -332, -881, -381, -19180, -34720, -21490
13217, -333, -891, -388, -14140, -31920, -15050
13237, -327, -881, -387, -6300, -36680, -3500
13257, -327, -868, -381, -2940, -31850, 2800
13277, -322, -856, -372, -5740, -16870, 4690
13297, -320, -845, -367, -4690, -4130, 6370
13317, -324, -852, -373, 2240, 3080, 8540
13337, -324, -861, -375, 10150, 8260, 11690
13357, -326, -874, -383, 18270, 13720, 14140
13377, -332, -885, -386, 21350, 22190, 17150
13397, -334, -881, -381, 18340, 36120, 18690
13417, -332, -874, -377, 17500, 47110, 20020
13437, -328, -863, -375, 22610, 46410, 26600
13457, -325, -856, -371, 28420, 44100, 32690
13477, -329, -856, -373, 30660, 48090, 34440
13497, -330, -857, -373, 30450, 55860, 33600
13517, -330, -857, -369, 30100, 65730, 29540
13537, -331, -861, -369, 30940, 72380, 26180
13557, -334, -867, -372, 33390, 69440, 28630
13577, -336, -875, -377, 35770, 62370, 33180
13597, -337, -876, -375, 33810, 61180, 34160
13617, -338, -868, -371, 28350, 66920, 26040
13637, -334, -857, -364, 28420, 64120, 23100
13657, -333, -855, -364, 27370, 58030, 22610
13677, -334, -862, -368, 25550, 49980, 23590
13697, -337, -872, -372, 23730, 44450, 21280
13717, -339, -874, -372, 21630, 44240, 13790
13737, -339, -869, -367, 17920, 43890, 6650
13757, -337, -869, -364, 14000, 37660, 4130
13777, -333, -864, -363, 10990, 27090, 3850
13797, -334, -864, -363, 7770, 14700, 5040
13817, -335, -867, -371, 4690, 5460, 3430
13837, -333, -855, -360, 2030, 4550, -5950
13857, -332, -853, -357, -3010, 5530, -15330
13877, -335, -863, -364, -7070, -1890, -17570
13897, -335, -868, -366, -6720, -14490, -18270
13917, -339, -877, -372, -8960, -25410, -18200
13937, -340, -883, -377, -14560, -31780, -19040
13957, -337, -877, -371, -19040, -31710, -25690
13977, -339, -874, -369, -23450, -32340, -31010
13997, -335, -865, -367, -24990, -41580, -29470
14017, -329, -855, -366, -23520, -54390, -25690
14037, -328, -853, -368, -26320, -59360, -24850
14057, -330, -858, -370, -31640, -56630, -27370
14077, -332, -864, -371, -32690, -53340, -31920
14097, -335, -869, -372, -31010, -51940, -35490
14117, -333, -873, -372, -29680, -54530, -34160
14137, -330, -867, -374, -28280, -60900, -28700
14157, -329, -863, -372, -29260, -64470, -22960
14177, -329, -861, -374, -32550, -61250, -20160
14197, -328, -854, -372, -31640, -55230, -21560
14217, -325, -854, -369, -26600, -50890, -23170
14237, -325, -854, -368, -22680, -48230, -21350
14257, -325, -858, -371, -19950, -46130, -17500
14277, -330, -873, -381, -17990, -44660, -11690
14297, -333, -887, -385, -16450, -39200, -8330
14317, -331, -885, -384, -13860, -29400, -9240
14337, -330, -877, -377, -9870, -22820, -7910
14357, -326, -863, -372, -6720, -19950, -2450
14377, -324, -856, -373, -4830, -17150, 3990
14397, -325, -858, -374, -1540, -14630, 10080
14417, -325, -865, -379, 2170, -7560, 11970
14437, -328, -862, -374, 4550, 6930, 8330
14457, -325, -857, -369, 9030, 18690, 5250
14477, -326, -861, -373, 15190, 18830, 10990
14497, -326, -864, -374, 18060, 17640, 19460
14517, -329, -870, -378, 16730, 24080, 22890
14537, -332, -874, -381, 15820, 32340, 24290
14557, -329, -859, -370, 19320, 40180, 22050
14577, -327, -856, -366, 25270, 46200, 18620
14597, -328, -861, -372, 28700, 45010, 22330
14617, -332, -874, -381, 28280, 43050, 28210
14637, -338, -890, -383, 24990, 48510, 28350
14657, -338, -886, -380, 23800, 56070, 24150
14677, -334, -871, -373, 27580, 57050, 21350
14697, -328, -857, -366, 30310, 53130, 22400
14717, -328, -849, -364, 27650, 49700, 25130
14737, -330, -852, -368, 23380, 46270, 28140
14757, -330, -851, -368, 21000, 45080, 27300
14777, -331, -852, -364, 21630, 48510, 19530
14797, -331, -855, -363, 24430, 49980, 11130
14817, -335, -872, -372, 26040, 45080, 8260
14837, -340, -886, -375, 22120, 38500, 9660
14857, -342, -889, -377, 14980, 34440, 10220
14877, -338, -879, -374, 9590, 29890, 9380
14897, -334, -860, -366, 8680, 24080, 6160
14917, -330, -847, -356, 9520, 18970, 420
14937, -326, -843, -358, 8120, 12530, -2660
14957, -328, -848, -361, 2800, 5460, -2380
14977, -335, -866, -369, -2940, 1820, -4690
14997, -342, -881, -373, -5320, -210, -10570
15017, -340, -889, -373, -3780, -3150, -18130
15037, -341, -888, -373, -4410, -7280, -23170
15057, -338, -877, -372, -9590, -14630, -22120
15077, -334, -869, -371, -15050, -26320, -16660
15097, -333, -862, -371, -19600, -36190, -12670
15117, -328, -850, -364, -22890, -37800, -16100
15137, -328, -843, -360, -23310, -34790, -24570
15157, -329, -852, -363, -22890, -35560, -29190
15177, -330, -862, -366, -22610, -40880, -28770
15197, -333, -876, -376, -22960, -46480, -26950
15217, -335, -882, -381, -25900, -50610, -23450
15237, -335, -876, -376, -29190, -50190, -22470
15257, -333, -874, -374, -29400, -46480, -26040
15277, -330, -865, -372, -27020, -46900, -26460
15297, -324, -852, -368, -24640, -51940, -21770
15317, -327, -854, -372, -25130, -54180, -16520
15337, -327, -858, -372, -27930, -51800, -12670
15357, -328, -863, -374, -26250, -45990, -13930
15377, -329, -872, -376, -15190, -35560, -17920
15397, -329, -874, -376, -12950, -33180, -14350
15417, -329, -874, -378, -13230, -32550, -7140
15437, -331, -878, -384, -14140, -31080, 420
15457, -329, -870, -378, -11830, -24780, 1890
15477, -327, -861, -374, -6510, -16660, 210
15497, -326, -854, -370, -980, -11130, 1120
15517, -322, -846, -366, 3500, -6720, 3500
15537, -327, -858, -373, 3990, -1680, 7980
15557, -330, -876, -381, 3780, 4970, 11620
15577, -332, -880, -382, 7980, 12530, 11130
15597, -329, -876, -380, 14000, 17920, 10990
15617, -327, -864, -373, 16940, 22330, 13020
15637, -324, -850, -366, 15400, 26110, 17710
15657, -323, -846, -368, 12740, 27720, 24290
15677, -327, -853, -369, 14560, 29540, 26880
15697, -326, -853, -371, 22540, 34230, 21980
15717, -330, -868, -375, 29820, 39760, 16170
15737, -333, -877, -375, 31010, 45360, 13790
15757, -337, -888, -378, 25200, 50540, 14980
15777, -341, -899, -384, 18480, 49280, 21490
15797, -339, -891, -381, 19600, 42420, 26460
15817, -333, -871, -375, 25760, 37520, 25200
15837, -329, -856, -368, 27370, 38990, 20650
15857, -327, -844, -359, 23100, 44940, 15260
15877, -327, -843, -359, 17570, 46900, 13790
15897, -331, -851, -364, 15750, 41230, 15610
15917, -334, -860, -369, 19320, 33040, 15400
15937, -332, -868, -371, 22400, 29050, 11060
15957, -333, -870, -369, 19740, 31500, 4410
15977, -335, -874, -369, 13160, 33460, 70
15997, -338, -879, -371, 7770, 28140, 700
16017, -336, -874, -368, 6440, 17570, 2730
16037, -336, -868, -371, 6090, 7070, 3710
16057, -331, -862, -368, 4970, 1960, 560
16077, -330, -855, -361, 1750, 4200, -8050
16097, -335, -861, -364, -3850, 5740, -14210
16117, -335, -864, -366, -7840, -1400, -13580
16137, -335, -867, -368, -7490, -12460, -12320
16157, -335, -874, -374, -8190, -20300, -12880
16177, -333, -873, -371, -10850, -22540, -16590
16197, -333, -868, -368, -14910, -21210, -21840
16217, -333, -863, -366, -20370, -23310, -22470
16237, -330, -860, -367, -21770, -31360, -19950
16257, -331, -857, -368, -20580, -39480, -18550
16277, -331, -861, -370, -21770, -41930, -19390
16297, -330, -859, -369, -23870, -40600, -21840
16317, -329, -860, -367, -24290, -39130, -24640
16337, -330, -866, -371, -25340, -38990, -24850
16357, -331, -870, -373, -26040, -41650, -21980
16377, -332, -876, -378, -24780, -44940, -19180
16397, -333, -879, -380, -23450, -46060, -17500
16417, -330, -871, -377, -22400, -43750, -17710
16437, -328, -864, -372, -22400, -39760, -17990
16457, -328, -861, -372, -23940, -37800, -14560
16477, -327, -856, -371, -23310, -38150, -9940
16497, -328, -860, -375, -17990, -38920, -7490
16517, -325, -863, -378, -13370, -36960, -6020
16537, -327, -865, -374, -11690, -28490, -7490
16557, -328, -871, -375, -11480, -18410, -9170
16577, -331, -879, -380, -9590, -15890, -4690
16597, -328, -873, -379, -5320, -17360, 1610
16617, -327, -867, -377, -1610, -15120, 5250
16637, -325, -858, -373, -700, -9520, 8050
16657, -324, -853, -370, -210, -1120, 8610
16677, -325, -856, -370, 2590, 6860, 7630
16697, -327, -863, -375, 8260, 9520, 9240
16717, -328, -870, -378, 14070, 10500, 11970
16737, -329, -872, -376, 14700, 16870, 13160
16757, -331, -877, -379, 13090, 25130, 13720
16777, -331, -875, -376, 14700, 28280, 15890
16797, -332, -872, -374, 18480, 29400, 17430
16817, -329, -867, -374, 20720, 31220, 18690
16837, -328, -862, -373, 21840, 32480, 20440
16857, -329, -864, -374, 21350, 35000, 21280
16877, -331, -862, -371, 20370, 39690, 19810
16897, -331, -863, -371, 21840, 42560, 17150
16917, -330, -863, -372, 23870, 40600, 17710
16937, -332, -864, -370, 24150, 38920, 18340
16957, -332, -869, -373, 23240, 39690, 16450
16977, -333, -868, -372, 21210, 39690, 15470
16997, -333, -860, -366, 19040, 38920, 14350
17017, -330, -858, -365, 18480, 37030, 12320
17037, -332, -857, -365, 18760, 32830, 11200
17057, -330, -858, -365, 17990, 28700, 10080
17077, -334, -866, -369, 15050, 26810, 7980
17097, -337, -872, -370, 11130, 25690, 5460
17117, -335, -877, -372, 10220, 19600, -2450
17137, -339, -883, -374, 8050, 13790, -3150
17157, -335, -873, -367, 4340, 9170, -4200
17177, -335, -871, -370, -840, 3990, -3920
17197, -333, -864, -368, -4410, -1820, -4130
17217, -332, -862, -366, -5180, -5460, -8330
17237, -331, -858, -365, -6160, -7490, -13370
17257, -329, -855, -362, -8260, -10920, -15960
17277, -331, -859, -367, -11130, -16870, -15540
17297, -332, -862, -368, -13650, -21490, -16100
17317, -333, -869, -371, -16380, -24010, -17780
17337, -335, -874, -373, -18550, -26390, -19180
17357, -332, -865, -368, -18970, -28560, -21490
17377, -334, -869, -372, -19880, -32550, -21140
17397, -332, -866, -372, -21140, -37170, -19180
17417, -331, -866, -373, -22890, -39200, -18410
17437, -331, -863, -370, -25760, -38850, -17780
17457, -329, -862, -371, -25760, -38710, -18060
17477, -328, -859, -369, -22680, -39340, -19180
17497, -329, -862, -372, -21210, -39760, -18410
17517, -330, -869, -375, -21770, -40460, -15050
17537, -329, -873, -378, -22050, -38710, -13370
17557, -332, -876, -378, -21840, -34930, -13160
17577, -331, -877, -380, -19530, -33250, -11760
17597, -326, -862, -372, -15540, -32760, -10010
17617, -323, -854, -371, -14140, -31010, -7000
17637, -325, -853, -371, -15540, -28840, -1890
17657, -322, -853, -371, -13580, -24850, -350
17677, -325, -862, -375, -9240, -19600, -1120
17697, -328, -870, -377, -4480, -14000, -1890
17717, -328, -869, -375, 70, -7840, -3010
17737, -331, -874, -378, 1330, -4410, 700
17757, -332, -877, -380, 210, -3010, 7700
17777, -330, -872, -378, 2170, -210, 11130
17797, -328, -864, -375, 5670, 4130, 12110
17817, -325, -859, -373, 8750, 9800, 12250
17837, -325, -859, -371, 11410, 16380, 11200
17857, -328, -864, -372, 13580, 21210, 11480
17877, -328, -874, -377, 15610, 22470, 14560
17897, -330, -877, -379, 17430, 24500, 16660
17917, -333, -876, -376, 18060, 29890, 15750
17937, -331, -868, -373, 19040, 33950, 15120
17957, -330, -863, -370, 20580, 33950, 16730
17977, -329, -858, -370, 20370, 33740, 18830
17997, -329, -858, -369, 19530, 35000, 19390
18017, -331, -860, -372, 20230, 35350, 19040
18037, -328, -855, -366, 22750, 36470, 16030
18057, -329, -857, -367, 23240, 38640, 12670
18077, -331, -863, -369, 20790, 38150, 13020
18097, -334, -870, -370, 19110, 36680, 12670
18117, -337, -882, -377, 17920, 35000, 11410
18137, -337, -882, -376, 17780, 31570, 10710
18157, -336, -874, -371, 18830, 29330, 7280
18177, -334, -864, -366, 15610, 28840, 4480
18197, -333, -862, -365, 9940, 26040, 4830
18217, -331, -857, -366, 7420, 19320, 6090
18237, -331, -858, -367, 7560, 13370, 4620
18257, -333, -863, -367, 6930, 11270, 280
18277, -332, -862, -363, 6160, 11270, -6020
18297, -336, -871, -369, 3430, 10360, -10430
18317, -335, -874, -369, -1890, 5180, -9380
18337, -334, -873, -372, -4410, -2940, -7630
18357, -336, -870, -372, -5670, -10080, -7700
18377, -330, -863, -368, -8260, -13020, -10080
18397, -330, -860, -364, -10640, -13440, -14700
18417, -333, -863, -366, -12950, -15540, -17290
18437, -331, -864, -369, -15260, -19880, -17570
18457, -332, -868, -372, -16450, -26460, -16030
18477, -333, -865, -372, -17430, -31220, -15400
18497, -332, -866, -370, -19110, -30730, -18410
18517, -333, -868, -371, -21420, -30240, -20090
18537, -332, -866, -372, -22190, -33110, -19110
18557, -331, -870, -373, -21910, -35980, -18200
18577, -332, -867, -374, -22610, -37870, -16660
18597, -328, -859, -370, -22190, -39550, -15050
18617, -328, -862, -371, -21910, -38640, -15050
18637, -327, -862, -372, -23030, -36190, -14560
18657, -329, -865, -372, -21560, -34790, -14210
18677, -330, -870, -375, -19180, -34720, -12600
18697, -331, -873, -376, -18130, -33740, -10080
18717, -328, -872, -373, -16380, -31010, -9170
18737, -330, -871, -377, -14210, -28140, -8190
18757, -327, -866, -373, -13300, -25690, -5320
18777, -326, -860, -372, -11830, -22610, -3010
18797, -327, -861, -372, -9590, -19460, -1050
18817, -326, -862, -373, -7490, -16940, 2030
18837, -327, -862, -374, -3850, -13370, 3360
18857, -328, -870, -377, -280, -7700, 3080
18877, -331, -875, -380, 3570, 3920, 4620
18897, -331, -874, -377, 6510, 6370, 7280
18917, -330, -872, -378, 7980, 7490, 11970
18937, -328, -868, -377, 9380, 10570, 14770
18957, -326, -860, -372, 11270, 16520, 13790
18977, -326, -857, -371, 12810, 21840, 13580
18997, -329, -858, -370, 14840, 24710, 14490
19017, -328, -861, -370, 18200, 26600, 14630
19037, -330, -869, -376, 19880, 28840, 14980
19057, -332, -879, -378, 19810, 31570, 15470
19077, -334, -878, -377, 19670, 35700, 13860
19097, -333, -871, -373, 19600, 37660, 13230
19117, -333, -866, -372, 19670, 34090, 16800
19137, -329, -856, -369, 20580, 31010, 18270
19157, -328, -854, -367, 19880, 31990, 16590
19177, -331, -859, -371, 18410, 33530, 14700
19197, -329, -858, -367, 19390, 35210, 10150
19217, -331, -858, -364, 19040, 35770, 6860
19237, -333, -866, -369, 16800, 31710, 8400
19257, -334, -872, -372, 16660, 26180, 8890
19277, -337, -884, -378, 14910, 24220, 6790
19297, -338, -886, -377, 11410, 25130, 3010
19317, -335, -871, -370, 9940, 23240, -140
19337, -332, -859, -366, 8820, 17150, -210
19357, -330, -854, -364, 5250, 10500, 1330
19377, -328, -853, -363, 2310, 4970, 1540
19397, -330, -856, -368, 490, 2380, -1540
19417, -333, -864, -369, -1120, 3640, -8050
19437, -336, -870, -367, -1610, 4130, -14630
19457, -335, -875, -370, -2240, -1400, -15890
19477, -337, -881, -375, -5250, -10500, -12110
19497, -335, -876, -373, -10220, -16590, -9800
19517, -333, -866, -370, -15120, -18690, -10430
19537, -332, -858, -366, -17430, -20650, -12390
19557, -326, -851, -363, -15050, -23730, -16170
19577, -329, -855, -364, -13580, -26880, -18760
19597, -333, -865, -371, -17220, -28980, -17850
19617, -332, -871, -371, -21630, -29050, -17500
19637, -337, -882, -377, -22610, -30590, -17640
19657, -336, -882, -377, -20370, -34580, -16800
19677, -330, -872, -373, -18060, -35840, -18130
19697, -329, -864, -369, -20790, -34930, -17290
19717, -327, -858, -371, -24920, -36680, -12040
19737, -328, -853, -370, -24570, -38920, -8750
19757, -327, -855, -371, -21490, -37240, -10150
19777, -327, -862, -373, -18830, -33740, -11900
19797, -328, -863, -371, -15680, -30310, -13160
19817, -328, -870, -373, -14070, -27230, -12600
19837, -331, -875, -378, -15120, -26320, -7700
19857, -331, -874, -379, -15120, -26110, -2590
19877, -329, -868, -377, -12670, -23800, -630
19897, -327, -863, -374, -8610, -20230, -280
19917, -325, -856, -369, -4620, -15890, -350
19937, -325, -858, -369, -3080, -10290, 350
19957, -330, -867, -376, -3780, -5880, 3780
19977, -331, -875, -378, -1610, -2870, 6650
19997, -332, -879, -380, 3990, 1190, 6020
20017, -330, -876, -379, 8470, 5390, 6160
20037, -328, -868, -375, 9800, 9450, 8260
20057, -330, -866, -374, 8470, 14560, 10570
20077, -328, -866, -377, 7070, 17640, 14280
20097, -327, -861, -373, 10500, 17430, 17220
20117, -326, -858, -371, 16730, 19810, 15470
20137, -326, -857, -369, 18760, 26110, 12460
20157, -330, -860, -368, 18060, 31430, 11690
20177, -332, -869, -373, 17920, 32830, 13020
20197, -333, -871, -375, 17780, 31990, 15750
20217, -331, -871, -375, 18830, 31360, 16730
20237, -332, -866, -371, 20790, 31850, 15330
20257, -332, -867, -370, 21210, 34510, 12180
20277, -332, -868, -369, 19460, 35700, 10990
20297, -334, -869, -373, 18340, 32830, 12390
20317, -335, -870, -373, 17430, 30100, 12740
20337, -331, -866, -369, 16310, 29890, 10360
20357, -332, -865, -369, 16590, 28840, 7210
20377, -332, -865, -369, 15820, 25550, 6300
20397, -332, -865, -367, 13440, 23520, 4760
20417, -332, -865, -368, 10920, 21350, 2870
20437, -333, -865, -369, 9310, 16940, 2310
20457, -333, -863, -368, 7560, 13230, 770
20477, -332, -864, -367, 5810, 11410, -2730
20497, -334, -865, -369, 3780, 8190, -5040
20517, -332, -862, -367, 1190, 3150, -5250
20537, -332, -860, -365, -1330, -210, -7140
20557, -332, -867, -370, -3850, -3850, -8750
20577, -333, -867, -370, -6090, -9170, -8610
20597, -335, -873, -371, -7350, -11340, -11760
20617, -337, -878, -376, -9310, -16380, -15400
20637, -335, -875, -372, -12250, -20090, -15820
20657, -333, -868, -369, -16310, -22890, -14630
20677, -331, -862, -370, -19390, -27650, -11690
20697, -328, -856, -366, -18690, -30660, -12390
20717, -331, -858, -369, -18270, -29610, -15680
20737, -330, -865, -370, -18830, -28700, -17360
20757, -331, -864, -370, -18480, -28980, -17920
20777, -330, -869, -372, -20580, -29820, -15680
20797, -332, -874, -374, -21840, -31710, -12320
20817, -331, -871, -375, -19250, -33530, -11200
20837, -331, -869, -376, -18270, -32690, -10570
20857, -330, -866, -371, -19180, -28840, -10710
20877, -328, -861, -370, -18480, -26110, -10500
20897, -327, -860, -370, -16730, -26810, -7420
20917, -327, -860, -371, -14980, -27580, -3710
20937, -325, -861, -373, -12670, -25690, -2380
20957, -327, -869, -375, -11130, -20650, -2730
20977, -330, -873, -376, -9730, -14070, -3990
20997, -332, -874, -377, -7140, -10080, -3780
21017, -332, -878, -379, -4620, -10430, 490
21037, -329, -875, -378, -2730, -10080, 4550
21057, -327, -869, -377, -1820, -6930, 6720
21077, -328, -862, -373, -840, -2800, 8330
21097, -325, -854, -367, 1190, 2520, 7840
21117, -326, -854, -368, 4060, 7490, 6860
21137, -329, -863, -373, 7000, 9170, 8610
21157, -330, -872, -379, 10430, 10430, 10080
21177, -332, -878, -378, 12110, 15120, 9310
21197, -333, -877, -378, 11900, 20090, 9380
21217, -331, -869, -372, 12530, 22120, 10850
21237, -329, -860, -371, 13510, 21910, 13370
21257, -330, -859, -372, 14210, 21070, 16030
21277, -329, -859, -371, 16100, 22050, 15750
21297, -328, -861, -370, 17920, 26110, 12320
21317, -331, -862, -370, 17990, 30520, 9240
21337, -331, -868, -370, 18130, 31500, 8540
21357, -332, -871, -373, 18410, 29470, 9590
21377, -333, -874, -376, 17360, 26110, 12250
21397, -333, -868, -372, 16660, 24710, 12180
21417, -333, -868, -373, 16100, 26180, 8960
21437, -332, -867, -370, 14630, 27370, 6090
21457, -332, -864, -367, 14840, 25830, 3920
21477, -333, -865, -368, 14420, 20860, 4690
21497, -331, -862, -367, 12320, 16940, 5460
21517, -334, -867, -371, 9660, 16240, 3290
21537, -332, -870, -370, 7560, 15400, 700
21557, -333, -863, -367, 7420, 14280, -3220
21577, -333, -869, -370, 6230, 10990, -4760
21597, -332, -869, -370, 3640, 5530, -3500
21617, -333, -866, -368, 1610, 1540, -4200
21637, -332, -867, -370, -1540, -1400, -4830
21657, -330, -864, -368, -4200, -3290, -6580
21677, -331, -860, -364, -5320, -3850, -10640
21697, -332, -863, -368, -7280, -6580, -11760
21717, -331, -867, -369, -8330, -12810, -10220
21737, -332, -871, -372, -8610, -16730, -11060
21757, -333, -872, -373, -11970, -16450, -12950
21777, -330, -864, -369, -15330, -16660, -13790
21797, -328, -859, -366, -15610, -19670, -13930
21817, -332, -864, -371, -15890, -24080, -12390
21837, -331, -867, -373, -16590, -27160, -11200
21857, -332, -867, -374, -16800, -26950, -12600
21877, -331, -870, -373, -18760, -24430, -14000
21897, -331, -865, -370, -19810, -23870, -13790
21917, -329, -865, -371, -17920, -26810, -12110
21937, -329, -866, -374, -17290, -30240, -8470
21957, -329, -866, -374, -18480, -29610, -6580
21977, -328, -864, -371, -18620, -25060, -8330
21997, -330, -866, -373, -17010, -21560, -9870
22017, -326, -864, -372, -14350, -22540, -7560
22037, -327, -863, -371, -10990, -24080, -4970
22057, -329, -868, -374, -11760, -21910, -2590
22077, -329, -865, -374, -14210, -17920, 0
22097, -328, -862, -371, -11410, -14140, -700
22117, -329, -865, -373, -5950, -12670, -840
22137, -329, -867, -374, -2730, -11130, 630
22157, -329, -871, -377, -2380, -6580, 1190
22177, -334, -878, -378, -3430, -2660, 3570
22197, -328, -869, -376, -1820, -1540, 6510
22217, -328, -865, -375, 3570, -560, 7000
22237, -325, -860, -370, 6020, 2940, 6930
22257, -328, -857, -369, 4760, 8120, 7840
22277, -330, -862, -372, 4200, 12040, 8890
22297, -329, -867, -376, 7070, 12460, 10360
22317, -330, -866, -374, 12460, 11900, 10710
22337, -331, -866, -373, 16100, 14070, 9520
22357, -330, -867, -373, 14210, 19880, 8540
22377, -333, -868, -373, 12040, 23380, 10920
22397, -333, -874, -378, 15820, 19740, 12670
22417, -331, -869, -374, 18550, 20370, 10920
22437, -331, -866, -372, 17500, 24360, 8330
22457, -332, -863, -368, 14700, 26460, 8190
22477, -329, -859, -367, 14000, 25410, 8750
22497, -332, -868, -373, 14630, 22190, 9870
22517, -331, -866, -373, 16030, 21000, 8190
22537, -332, -864, -367, 16030, 22680, 4480
22557, -332, -865, -369, 13370, 22750, 3850
22577, -331, -865, -369, 11830, 20720, 3570
22597, -331, -867, -369, 11340, 17990, 2800
22617, -334, -875, -374, 9590, 14560, 3360
22637, -332, -868, -370, 9100, 12880, 1260
22657, -330, -863, -364, 7770, 13230, -2520
22677, -333, -867, -369, 4200, 11830, -3220
22697, -332, -865, -367, 2870, 7280, -3010
22717, -330, -864, -369, 2450, 2590, -3430
22737, -331, -864, -368, -560, -210, -3500
22757, -330, -861, -367, -2310, -1190, -6090
22777, -330, -859, -364, -3010, -2030, -9450
22797, -333, -866, -370, -6020, -4620, -9450
22817, -333, -871, -371, -7630, -8330, -9170
22837, -332, -870, -369, -7980, -10850, -10850
22857, -334, -872, -373, -10850, -13300, -10220
22877, -330, -868, -372, -12110, -15960, -10220
22897, -331, -864, -369, -12390, -16590, -12600
22917, -333, -869, -372, -15750, -18200, -11340
22937, -329, -860, -367, -16520, -21630, -9660
22957, -327, -857, -367, -15260, -23450, -10500
22977, -328, -859, -369, -17150, -23100, -10500
22997, -329, -864, -371, -17990, -22890, -10640
23017, -329, -866, -371, -16100, -23030, -11900
23037, -334, -875, -375, -16940, -23100, -10710
23057, -332, -869, -374, -17080, -24500, -8260
23077, -329, -867, -372, -14840, -25620, -7630
23097, -331, -869, -375, -15890, -24780, -5810
23117, -329, -865, -372, -17080, -22260, -4830
23137, -328, -862, -370, -14490, -20160, -5810
23157, -329, -868, -375, -12670, -20300, -3570
23177, -327, -861, -369, -10150, -19740, -2240
23197, -326, -864, -372, -7560, -17360, -2380
23217, -329, -871, -377, -8680, -14910, 770
23237, -330, -871, -377, -8050, -11200, 1750
23257, -328, -872, -375, -3920, -7420, 140
23277, -329, -870, -377, -1330, -5460, 1820
23297, -327, -858, -371, -280, -3710, 4480
23317, -322, -850, -367, 1260, -1400, 6300
23337, -321, -841, -364, 1400, 770, 9100
23357, -329, -863, -378, 2310, 3290, 11130
23377, -331, -874, -375, 6510, 9100, 7490
23397, -334, -890, -382, 12880, 16940, 140
23417, -339, -901, -388, 13860, 17990, 2870
23437, -335, -884, -377, 12040, 17640, 7910
23457, -332, -874, -375, 10010, 18690, 10430
23477, -330, -864, -377, 8750, 14210, 17570
23497, -323, -843, -364, 11480, 13020, 18480
23517, -322, -834, -357, 14700, 20440, 11060
23537, -323, -842, -363, 15190, 25410, 7700
23557, -328, -853, -365, 16660, 25620, 7420
23577, -334, -874, -373, 17360, 27650, 5180
23597, -340, -893, -384, 15890, 28070, 5600
23617, -335, -887, -381, 17430, 23590, 7980
23637, -333, -876, -374, 18550, 23380, 5950
23657, -337, -871, -372, 13090, 26390, 4830
23677, -328, -858, -367, 9940, 22610, 7770
23697, -329, -851, -366, 11410, 16870, 8540
23717, -330, -856, -368, 10430, 15330, 7280
23737, -327, -856, -367, 10780, 15050, 3990
23757, -331, -866, -370, 13090, 15820, -2030
23777, -334, -878, -371, 8750, 18060, -4900
23797, -335, -874, -370, 3990, 16800, -4830
23817, -337, -879, -375, 4200, 8960, -2660
23837, -333, -873, -374, 2660, 1330, 490
23857, -328, -861, -366, 770, -700, -1260
23877, -330, -859, -364, 0, -560, -5670
23897, -329, -852, -363, -4200, -280, -7700
23917, -328, -855, -364, -7700, -1470, -8890
23937, -333, -869, -372, -7420, -7980, -7840
23957, -333, -875, -375, -6650, -14350, -6930
23977, -334, -876, -374, -6860, -14000, -10990
23997, -333, -875, -371, -9380, -12460, -14000
24017, -332, -864, -370, -13860, -13650, -12880
24037, -329, -861, -368, -17080, -16800, -10850
24057, -330, -862, -373, -16870, -23590, -7280
24077, -326, -854, -368, -14560, -29540, -5250
24097, -326, -859, -369, -13720, -26040, -10150
24117, -332, -865, -373, -17500, -19600, -13720
24137, -332, -870, -372, -16380, -21280, -12880
24157, -332, -879, -378, -14490, -27720, -7490
24177, -331, -877, -377, -14000, -30520, -3920
24197, -327, -864, -373, -15680, -24990, -6090
24217, -328, -855, -368, -19670, -18830, -6580
24237, -329, -861, -371, -17710, -19180, -5040
24257, -328, -862, -371, -10570, -22050, -4550
24277, -330, -870, -376, -7210, -21770, -3640
24297, -332, -878, -381, -8120, -19040, -1190
24317, -331, -875, -378, -8960, -11690, -3290
24337, -333, -874, -374, -9940, -5880, -3640
24357, -331, -871, -376, -7910, -9240, 2450
24377, -324, -855, -370, -1540, -13300, 5950
24397, -322, -853, -370, -140, -9800, 6230
24417, -327, -861, -374, -1960, -3010, 6090
24437, -327, -860, -370, 630, 3990, 2660
24457, -330, -868, -372, 3500, 8890, 700
24477, -330, -873, -375, 6300, 7210, 4760
24497, -327, -871, -376, 10430, 4480, 8330
24517, -333, -878, -379, 8820, 8750, 9240
24537, -333, -873, -376, 5250, 15750, 8960
24557, -328, -866, -374, 8960, 16940, 8540
24577, -326, -858, -368, 13790, 16380, 8330
24597, -326, -858, -368, 14420, 17640, 9030
24617, -329, -864, -373, 14000, 17990, 10850
24637, -330, -866, -372, 13440, 21280, 9660
24657, -334, -872, -373, 12670, 26320, 6650
24677, -333, -871, -373, 15540, 25060, 6300
24697, -329, -870, -371, 19460, 21560, 6650
24717, -332, -868, -371, 16240, 22540, 7210
24737, -332, -866, -373, 11340, 23310, 8750
24757, -330, -862, -369, 11550, 21490, 8470
24777, -330, -859, -368, 13160, 20440, 6370
24797, -328, -858, -368, 14140, 19950, 3780
24817, -329, -859, -366, 14630, 19180, 1400
24837, -331, -868, -369, 11060, 18830, 980
24857, -335, -873, -372, 6650, 17360, 1960
24877, -334, -872, -373, 7560, 13370, 1050
24897, -335, -871, -371, 8470, 10220, -770
24917, -332, -865, -366, 5670, 9730, -2450
24937, -328, -857, -365, 2800, 7560, -2940
24957, -330, -860, -366, 350, 3080, -1750
24977, -333, -867, -370, -2240, 1050, -2730
24997, -332, -869, -371, -2730, 560, -6510
25017, -335, -873, -373, -2170, -980, -10150
25037, -333, -873, -371, -4690, -3150, -11060
25057, -333, -869, -369, -7770, -7070, -10150
25077, -333, -868, -373, -9450, -14000, -7350
25097, -330, -862, -371, -12040, -19250, -4900
25117, -328, -854, -366, -13580, -18340, -8330
25137, -329, -856, -366, -14000, -17570, -12040
25157, -330, -859, -367, -14140, -20020, -12390
25177, -329, -861, -368, -13860, -22400, -12670
25197, -331, -871, -376, -15260, -25410, -10640
25217, -333, -876, -378, -17570, -27370, -8190
25237, -334, -878, -375, -17920, -24780, -10780
25257, -332, -880, -378, -17290, -23240, -12530
25277, -330, -871, -374, -15260, -26320, -10430
25297, -328, -864, -372, -14910, -27580, -8680
25317, -329, -860, -372, -18200, -26740, -5740
25337, -326, -856, -373, -19180, -27580, -2100
25357, -326, -855, -371, -15540, -26740, -2800
25377, -327, -858, -368, -12320, -21700, -6230
25397, -328, -864, -374, -10430, -17920, -7210
25417, -330, -869, -375, -8610, -17290, -4900
25437, -332, -874, -377, -8050, -15540, -2660
25457, -331, -876, -381, -8260, -14070, 910
25477, -330, -867, -374, -6090, -12740, 3290
25497, -328, -866, -372, -3990, -7140, 1610
25517, -326, -861, -372, -3010, -2590, 1890
25537, -326, -859, -371, 420, -2170, 3990
25557, -326, -865, -374, 2940, -980, 6020
25577, -330, -869, -378, 2450, 3010, 7770
25597, -329, -862, -373, 4550, 7770, 6650
25617, -332, -867, -375, 8120, 12460, 4410
25637, -327, -861, -370, 8400, 14560, 6720
25657, -327, -860, -373, 10710, 14630, 8680
25677, -332, -869, -378, 11550, 15400, 10500
25697, -329, -868, -374, 10080, 18480, 11830
25717, -330, -863, -370, 12390, 22540, 8820
25737, -330, -870, -374, 15960, 23870, 7070
25757, -331, -867, -373, 15820, 24500, 7910
25777, -331, -872, -374, 15680, 25130, 7840
25797, -335, -877, -377, 14910, 24850, 8470
25817, -333, -869, -371, 12740, 24430, 9870
25837, -329, -862, -369, 14000, 24640, 7560
25857, -329, -859, -367, 16520, 22890, 5530
25877, -330, -860, -369, 11970, 21210, 5460
25897, -331, -861, -368, 9800, 21140, 4130
25917, -333, -867, -371, 9870, 17850, 3780
25937, -332, -869, -374, 12250, 14070, 2030
25957, -333, -867, -369, 11900, 14000, -1680
25977, -334, -873, -371, 6790, 14420, -2520
25997, -335, -875, -373, 2870, 11550, -1540
26017, -334, -871, -370, 3220, 6440, -1820
26037, -331, -868, -369, 3570, 980, -1680
26057, -330, -861, -368, 2100, -1260, -3220
26077, -327, -852, -361, -1750, 350, -6580
26097, -329, -854, -364, -6230, -770, -6720
26117, -332, -864, -371, -6230, -6580, -5600
26137, -330, -865, -369, -2940, -10360, -8470
26157, -332, -873, -373, -4200, -10640, -10780
26177, -334, -873, -375, -9100, -10570, -10570
26197, -332, -867, -369, -11900, -11200, -11200
26217, -332, -869, -371, -13370, -15050, -9590
26237, -332, -871, -376, -13160, -21910, -5810
26257, -328, -858, -368, -11550, -23450, -7420
26277, -327, -856, -365, -14000, -19880, -10290
26297, -331, -859, -372, -17150, -19040, -9520
26317, -330, -865, -369, -15960, -20160, -10010
26337, -331, -874, -374, -14840, -21210, -9800
26357, -332, -878, -379, -14560, -24010, -6860
26377, -330, -871, -375, -12950, -24500, -6510
26397, -330, -864, -370, -14770, -19950, -8260
26417, -331, -867, -375, -17920, -19110, -4900
26437, -327, -859, -370, -14980, -22330, -1890
26457, -327, -856, -367, -11620, -21350, -2870
26477, -329, -864, -376, -11550, -19250, -1680
26497, -327, -863, -373, -9100, -16660, -2380
26517, -326, -867, -372, -8120, -10640, -5180
26537, -334, -879, -380, -10360, -8330, -1820
26557, -329, -873, -376, -6440, -11340, 2030
26577, -329, -867, -375, -1750, -11270, 2380
26597, -328, -868, -377, -3640, -7140, 4060
26617, -328, -859, -373, -3990, -2870, 4480
26637, -327, -862, -371, -1330, 630, 3220
26657, -331, -864, -372, 140, 2730, 4200
26677, -328, -862, -373, 3920, 2310, 5600
26697, -328, -865, -374, 6650, 3570, 6160
26717, -329, -870, -374, 4970, 9030, 5600
26737, -329, -867, -375, 5460, 12250, 5460
26757, -330, -870, -377, 8680, 11620, 6650
26777, -330, -870, -372, 10080, 13510, 6370
26797, -329, -867, -372, 10850, 15610, 5810
26817, -330, -866, -374, 11480, 14420, 8260
26837, -331, -862, -371, 10710, 15890, 8680
26857, -330, -866, -371, 11060, 19040, 6370
26877, -330, -865, -374, 13230, 18410, 6020
26897, -331, -866, -372, 14420, 18410, 5320
26917, -331, -866, -369, 13160, 20580, 3990
26937, -332, -869, -375, 12110, 19390, 5110
26957, -332, -868, -375, 12320, 16940, 6020
26977, -331, -866, -369, 12530, 17990, 3360
26997, -331, -862, -370, 11830, 17990, 2100
27017, -330, -861, -368, 10850, 15540, 2940
27037, -331, -863, -368, 9590, 15120, 1680
27057, -333, -869, -374, 8540, 14000, 630
27077, -332, -869, -372, 8680, 10920, 560
27097, -331, -869, -371, 8050, 10640, -1820
27117, -332, -865, -369, 5110, 10780, -3080
27137, -329, -861, -369, 3850, 7000, -2100
27157, -330, -867, -372, 2590, 2800, -980
27177, -331, -868, -369, 420, 2170, -2450
27197, -333, -870, -372, -490, 2450, -5530
27217, -332, -868, -370, -910, 420, -6790
27237, -330, -865, -369, -1890, -1890, -7420
27257, -333, -870, -373, -3920, -5110, -6580
27277, -332, -869, -373, -7280, -8610, -4340
27297, -331, -864, -369, -9450, -8890, -5670
27317, -329, -864, -371, -9590, -9380, -7910
27337, -329, -859, -369, -8680, -12810, -7910
27357, -328, -862, -368, -8960, -14910, -8190
27377, -331, -868, -372, -12180, -15120, -7700
27397, -330, -865, -370, -14910, -15750, -6790
27417, -329, -863, -370, -14560, -16870, -7210
27437, -328, -861, -371, -13650, -18830, -6720
27457, -328, -861, -370, -12180, -20440, -6720
27477, -332, -871, -374, -12320, -19740, -7350
27497, -332, -875, -377, -15890, -18340, -5600
27517, -331, -872, -374, -16240, -17220, -5530
27537, -330, -870, -375, -12880, -17850, -6230
27557, -329, -866, -372, -11200, -20160, -3640
27577, -329, -856, -370, -11130, -19880, -2240
27597, -329, -863, -371, -12460, -16800, -2100
27617, -330, -868, -375, -13790, -15540, 210
27637, -327, -866, -370, -5390, -11760, -3290
27657, -330, -870, -375, -4550, -10080, -1890
27677, -329, -868, -376, -5040, -8890, 770
27697, -329, -866, -371, -5040, -5880, 1260
27717, -331, -872, -377, -5320, -5250, 4550
27737, -329, -870, -377, -1400, -5180, 5390
27757, -325, -860, -371, 2800, -1260, 2590
27777, -328, -863, -372, 2450, 2520, 3220
27797, -328, -861, -370, 3220, 4200, 4760
27817, -328, -864, -374, 4200, 6790, 4830
27837, -331, -873, -375, 4130, 8890, 6230
27857, -329, -870, -376, 8470, 8960, 6160
27877, -327, -866, -373, 12320, 10710, 4760
27897, -329, -866, -373, 9520, 15050, 5250
27917, -329, -864, -371, 7980, 17080, 6440
27937, -330, -865, -373, 9940, 16100, 7280
27957, -329, -873, -377, 11410, 16170, 7490
27977, -329, -867, -374, 14140, 17780, 5040
27997, -330, -868, -372, 15540, 19320, 3010
28017, -331, -870, -372, 12110, 20440, 4410
28037, -332, -867, -372, 10500, 20440, 4970
28057, -330, -867, -373, 11690, 17220, 6160
28077, -330, -864, -371, 11760, 15680, 6300
28097, -328, -856, -367, 11690, 18130, 2520
28117, -329, -859, -368, 11970, 18340, 280
28137, -330, -866, -370, 10780, 15470, 1610
28157, -332, -867, -369, 9310, 13930, 1400
28177, -330, -872, -373, 7980, 12950, 490
28197, -333, -870, -374, 6440, 11410, 140
28217, -331, -867, -369, 6090, 10990, -2380
28237, -332, -869, -370, 5040, 8960, -3290
28257, -332, -870, -373, 3500, 4760, -1820
28277, -331, -868, -371, 1680, 2240, -1960
28297, -331, -863, -369, -840, 1820, -3360
28317, -332, -861, -369, -2730, 70, -3990
28337, -329, -862, -368, -2590, -2590, -5110
28357, -329, -863, -369, -3290, -4480, -6440
28377, -330, -866, -371, -4760, -7280, -5950
28397, -329, -867, -370, -6650, -8750, -6370
28417, -331, -865, -369, -9660, -7910, -7770
28437, -332, -867, -373, -10850, -10150, -7420
28457, -329, -866, -371, -8960, -15610, -5950
28477, -329, -866, -371, -8890, -17220, -6440
28497, -329, -863, -369, -12390, -15400, -7140
28517, -329, -867, -373, -14910, -14840, -6790
28537, -331, -868, -372, -15120, -15610, -6790
28557, -330, -868, -372, -12880, -17220, -7210
28577, -330, -869, -374, -10640, -20790, -5530
28597, -330, -867, -372, -11130, -21630, -3780
28617, -328, -865, -373, -14560, -16730, -4900
28637, -332, -866, -372, -16730, -14070, -4480
28657, -330, -865, -373, -15260, -16170, -2100
28677, -328, -864, -371, -10430, -17640, -2310
28697, -328, -867, -375, -6790, -17500, -2940
28717, -331, -873, -378, -7420, -16100, -1190
28737, -331, -868, -370, -10360, -9940, -2100
28757, -332, -871, -376, -12110, -5180, -2660
28777, -328, -864, -373, -8960, -9660, 2170
28797, -325, -855, -370, -2240, -13510, 3850
28817, -326, -860, -371, -840, -10150, 2730
28837, -328, -859, -372, -3990, -4690, 3220
28857, -328, -866, -372, -4270, 560, 1890
28877, -330, -874, -375, -1820, 3780, 280
28897, -330, -875, -377, 2940, 1820, 2030
28917, -330, -872, -377, 7630, -840, 4130
28937, -331, -868, -374, 6160, 3080, 4340
28957, -330, -868, -373, 1470, 8470, 5530
28977, -327, -863, -371, 1960, 9590, 6580
28997, -329, -861, -369, 6510, 9450, 5670
29017, -329, -864, -372, 10640, 9660, 4480
29037, -327, -862, -371, 12810, 10080, 4270
29057, -331, -868, -371, 10990, 13580, 3780
29077, -333, -873, -375, 6860, 17290, 4270
29097, -332, -870, -375, 8190, 16380, 4900
29117, -330, -869, -374, 12950, 14280, 3780
29137, -329, -865, -372, 14070, 13790, 3570
29157, -328, -860, -368, 12880, 14840, 3290
29177, -332, -863, -370, 10220, 16240, 3220
29197, -330, -865, -373, 7280, 16450, 4270
29217, -329, -866, -371, 9450, 14630, 3220
29237, -332, -870, -372, 13510, 12810, 770
29257, -332, -871, -372, 12040, 14140, -910
29277, -331, -871, -371, 8680, 15610, -1820
29297, -333, -874, -373, 7350, 12810, -490
29317, -332, -864, -371, 5740, 8470, 2310
29337, -330, -857, -365, 5040, 7490, 1190
29357, -327, -852, -364, 4620, 7630, -1260
29377, -328, -859, -370, 3150, 6580, -2310
29397, -330, -867, -372, 2870, 3360, -4200
29417, -332, -877, -377, 560, 3360, -5250
29437, -335, -876, -373, -2730, 3220, -5530
29457, -333, -867, -369, -3290, 280, -5390
29477, -330, -867, -370, -3430, -5740, -2730
29497, -331, -868, -374, -5320, -8960, -1400
29517, -331, -866, -371, -7560, -7140, -4060
29537, -328, -859, -367, -10010, -5040, -6650
29557, -331, -856, -366, -10430, -7350, -6440
29577, -330, -859, -370, -8400, -12460, -5390
29597, -330, -866, -370, -8050, -15260, -5180
29617, -333, -876, -379, -11060, -14910, -4900
29637, -331, -874, -373, -13650, -12530, -6230
29657, -332, -868, -370, -14140, -11550, -7770
29677, -330, -864, -369, -13440, -15890, -5040
29697, -329, -864, -372, -11760, -21630, -1470
29717, -331, -869, -374, -12110, -20790, -2170
29737, -329, -868, -373, -13930, -15330, -5460
29757, -330, -869, -373, -14280, -14070, -5530
29777, -329, -863, -371, -11760, -15820, -4550
29797, -327, -861, -369, -10220, -17570, -3080
29817, -330, -869, -376, -9940, -19810, 420
29837, -330, -870, -377, -10430, -17220, 420
29857, -331, -866, -372, -10990, -10360, -3080
29877, -330, -868, -372, -8890, -8820, -3360
29897, -329, -863, -369, -4270, -12040, -1050
29917, -330, -863, -373, -3150, -12040, 840
29937, -328, -867, -376, -5180, -9520, 2940
29957, -329, -869, -376, -4200, -6370, 2730
29977, -330, -868, -375, -2030, -1610, 280
29997, -330, -868, -373, 210, 1540, -840
30017, -327, -865, -371, 3570, 210, 1120
30037, -330, -866, -373, 4690, -1260, 4830
30057, -329, -867, -375, 3290, 1470, 6440
30077, -328, -862, -374, 4270, 5880, 4970
30097, -327, -860, -369, 5880, 10430, 2940
30117, -328, -861, -370, 6860, 13230, 2520
30137, -329, -864, -372, 10220, 12180, 3500
30157, -332, -873, -377, 12390, 10570, 5390
30177, -335, -878, -378, 10850, 13300, 5950
30197, -332, -873, -375, 9870, 18340, 3640
30217, -332, -865, -371, 10500, 20860, 2030
30237, -331, -866, -372, 10990, 18830, 4200
30257, -328, -860, -370, 13300, 14420, 6580
30277, -326, -862, -370, 14350, 13440, 6440
30297, -331, -864, -369, 10080, 17640, 5250
30317, -332, -861, -367, 7980, 22400, 1610
30337, -331, -870, -372, 11340, 21140, -910
30357, -331, -871, -372, 14000, 15050, 1190
30377, -332, -870, -373, 13300, 11830, 2660
30397, -334, -875, -373, 8190, 13160, 2800
30417, -336, -872, -374, 3360, 15680, 1470
30437, -333, -868, -370, 3850, 15120, -1190
30457, -329, -866, -370, 7350, 9310, -1400
30477, -330, -862, -370, 8050, 4060, -420
30497, -330, -860, -368, 3990, 3920, -910
30517, -332, -862, -369, -1890, 5250, -1470
30537, -330, -863, -367, -3990, 3850, -2030
30557, -330, -862, -366, -1610, 630, -4340
30577, -329, -869, -372, 70, -3010, -5670
30597, -331, -871, -373, -1330, -6020, -5250
30617, -334, -877, -374, -5390, -5880, -5880
30637, -336, -876, -374, -9940, -5460, -6090
30657, -330, -864, -368, -10640, -8610, -5530
30677, -327, -858, -367, -8610, -13720, -5040
30697, -327, -855, -368, -9660, -16380, -4270
30717, -327, -857, -368, -11480, -16100, -5320
30737, -328, -865, -372, -13090, -15890, -6090
30757, -331, -868, -373, -13930, -15890, -6650
30777, -330, -871, -372, -12810, -16240, -7910
30797, -330, -869, -374, -11690, -18410, -7140
30817, -333, -871, -374, -12180, -19740, -5670
30837, -332, -872, -376, -14000, -19880, -3920
30857, -330, -868, -372, -14490, -19390, -3290
30877, -331, -864, -371, -13930, -18060, -3850
30897, -328, -859, -369, -12880, -17780, -3080
30917, -327, -857, -369, -10360, -17640, -3290
30937, -329, -867, -374, -9800, -16590, -2520
30957, -331, -872, -376, -10360, -14700, -1400
30977, -331, -876, -377, -8820, -12320, -1960
30997, -333, -875, -376, -6860, -10290, -2170
31017, -328, -870, -375, -5460, -8960, -1330
31037, -327, -864, -372, -3990, -8330, 210
31057, -329, -863, -374, -4060, -7490, 2520
31077, -328, -860, -372, -4690, -5740, 4620
31097, -326, -860, -372, -2380, -2870, 3780
31117, -327, -863, -373, 1260, -140, 2170
31137, -327, -861, -368, 4970, 5180, 1330
31157, -328, -870, -374, 3850, 7210, 3360
31177, -332, -876, -378, 3780, 8260, 5390
31197, -332, -877, -378, 7140, 10010, 4130
31217, -330, -876, -376, 10010, 11550, 3360
31237, -331, -868, -373, 10570, 12880, 3920
31257, -328, -860, -371, 9520, 14490, 4830
31277, -329, -859, -369, 7560, 15540, 6510
31297, -331, -861, -371, 7770, 15050, 7840
31317, -329, -860, -372, 12040, 14910, 5810
31337, -329, -861, -371, 15470, 16940, 2100
31357, -331, -870, -372, 14210, 19530, 770
31377, -332, -874, -373, 10920, 21280, 1120
31397, -332, -874, -372, 8820, 20230, 2520
31417, -332, -874, -375, 9590, 14980, 5600
31437, -331, -869, -373, 12390, 10920, 5740
31457, -327, -856, -367, 12530, 13440, 1470
31477, -330, -861, -368, 8330, 16240, -140
31497, -330, -863, -368, 5600, 15050, 560
31517, -330, -862, -367, 6230, 12880, -700
31537, -333, -872, -374, 6650, 8330, 420
31557, -331, -871, -373, 7840, 4550, 280
31577, -330, -869, -370, 6720, 6300, -3710
31597, -334, -872, -371, 560, 8820, -4690
31617, -333, -870, -369, -2450, 5600, -3010
31637, -331, -865, -369, -910, -1470, -1120
31657, -329, -860, -368, -490, -5390, -1190
31677, -330, -862, -369, -2100, -6020, -2590
31697, -329, -859, -366, -3990, -4340, -5740
31717, -333, -866, -366, -7210, -2170, -8400
31737, -332, -870, -369, -8820, -5600, -6790
31757, -331, -870, -372, -6930, -12600, -4410
31777, -330, -870, -371, -6790, -15330, -4270
31797, -332, -872, -372, -10220, -13790, -5250
31817, -331, -866, -370, -12530, -12390, -6440
31837, -329, -860, -366, -13580, -12250, -7140
31857, -329, -860, -368, -13510, -16100, -4760
31877, -326, -860, -369, -11130, -21350, -2310
31897, -329, -862, -371, -10920, -20300, -3920
31917, -332, -872, -373, -14070, -15680, -5670
31937, -332, -872, -372, -13860, -14280, -6370
31957, -330, -872, -372, -11200, -14700, -7210
31977, -333, -875, -375, -11620, -16520, -4340
31997, -330, -870, -373, -11270, -19320, -700
32017, -330, -864, -373, -10780, -18760, -140
32037, -330, -863, -373, -12460, -14910, -420
32057, -327, -859, -370, -10850, -12390, -1540
32077, -327, -860, -368, -7000, -11830, -2380
32097, -329, -866, -374, -6510, -10430, -1400
32117, -330, -869, -375, -6090, -9520, 280
32137, -329, -869, -375, -4060, -9100, 1470
32157, -331, -874, -377, -3710, -5670, 1330
32177, -330, -871, -373, -3080, -1330, 210
32197, -326, -862, -372, -140, 140, -70
32217, -330, -869, -375, 980, -770, 3010
32237, -327, -860, -370, 1050, -350, 5600
32257, -327, -859, -372, 3150, 2660, 4060
32277, -331, -864, -373, 3290, 5180, 4690
32297, -327, -861, -370, 4480, 8960, 3220
32317, -330, -868, -371, 7490, 12740, -140
32337, -333, -875, -378, 8330, 10850, 3290
32357, -328, -871, -376, 9660, 8890, 6090
32377, -331, -871, -374, 10640, 12180, 3920
32397, -332, -873, -376, 7910, 15960, 3780
32417, -329, -862, -367, 7630, 17360, 3780
32437, -329, -865, -371, 10850, 17220, 1960
32457, -330, -867, -375, 12320, 13230, 4690
32477, -328, -861, -371, 13230, 11060, 5950
32497, -331, -863, -371, 11270, 15890, 2450
32517, -333, -866, -371, 6930, 20370, 840
32537, -330, -866, -370, 8330, 18130, 770
32557, -331, -872, -373, 12670, 12530, 1260
32577, -333, -873, -374, 12390, 10150, 1960
32597, -330, -866, -370, 9380, 11200, 1260
32617, -329, -864, -369, 5810, 13790, -630
32637, -333, -867, -370, 2870, 13650, -840
32657, -329, -866, -371, 4970, 8260, -140
32677, -329, -866, -371, 8330, 3010, -490
32697, -331, -865, -370, 5670, 3010, -1260
32717, -329, -861, -366, 350, 5460, -2520
32737, -334, -869, -369, -1330, 5530, -4340
32757, -333, -872, -375, -1540, 1960, -3920
32777, -329, -867, -370, -140, -3220, -3080
32797, -330, -865, -370, 210, -5740, -3920
32817, -330, -863, -369, -4130, -5460, -3710
32837, -328, -861, -368, -8190, -5180, -3710
32857, -331, -865, -371, -8680, -6510, -4620
32877, -331, -869, -372, -8330, -8750, -5110
32897, -330, -869, -372, -6090, -13860, -5600
32917, -331, -871, -373, -9240, -12670, -5950
32937, -331, -867, -371, -13370, -11340, -5320
32957, -331, -864, -371, -14770, -13230, -3500
32977, -329, -863, -371, -13090, -16240, -2450
32997, -329, -861, -371, -10010, -18480, -2870
33017, -328, -863, -372, -8120, -18760, -3640
33037, -328, -865, -371, -10780, -14560, -4970
33057, -333, -871, -372, -14910, -10150, -5250
33077, -331, -870, -371, -14490, -11830, -2870
33097, -330, -869, -375, -10010, -17150, 280
33117, -329, -869, -377, -6860, -18410, 910
33137, -327, -866, -373, -6860, -13440, -1680
33157, -330, -863, -372, -9940, -7420, -2730
33177, -329, -870, -374, -11130, -5880, -840
33197, -328, -869, -372, -6790, -8680, 980
33217, -328, -869, -375, -1470, -10920, 1750
33237, -330, -874, -378, -2240, -8190, 2800
33257, -325, -860, -370, -4410, -1120, 700
33277, -327, -859, -368, -4480, 2310, 140
33297, -328, -864, -372, -2730, -280, 4060
33317, -329, -865, -374, 1610, -1470, 4410
33337, -327, -867, -374, 5040, 700, 2520
33357, -330, -870, -376, 4620, 4830, 1680
33377, -329, -869, -374, 2800, 9030, 1470
33397, -330, -866, -371, 2660, 11200, 1400
33417, -330, -874, -377, 4550, 7770, 4900
33437, -329, -869, -374, 8610, 4550, 6510
33457, -327, -865, -372, 10360, 8540, 2940
33477, -328, -863, -370, 7490, 13370, 1820
33497, -329, -860, -370, 6370, 14770, 2100
33517, -330, -863, -370, 8400, 13510, 2240
33537, -331, -872, -377, 9520, 11200, 3710
33557, -332, -872, -375, 11200, 10360, 3360
33577, -331, -869, -372, 12180, 13300, -70
33597, -331, -870, -374, 9170, 15890, -700
33617, -330, -864, -368, 7420, 14910, 700
33637, -330, -866, -372, 8190, 11480, 2030
33657, -329, -865, -371, 9030, 7980, 3570
33677, -328, -859, -368, 9730, 7840, 1890
33697, -327, -859, -368, 8540, 10780, -1260
33717, -330, -863, -368, 5670, 13230, -3010
33737, -332, -869, -370, 5040, 11270, -2590
33757, -331, -874, -373, 5880, 6930, -1330
33777, -332, -874, -376, 5530, 3920, -350
33797, -332, -870, -373, 4760, 3080, -1050
33817, -330, -866, -370, 3290, 3990, -2870
33837, -333, -867, -370, -1190, 5180, -3080
33857, -330, -858, -366, -3640, 3360, -2100
33877, -329, -860, -368, -1120, -2240, -1190
33897, -328, -862, -371, 210, -6860, -140
33917, -328, -861, -367, -1120, -4620, -3290
33937, -332, -868, -372, -5320, 350, -6930
33957, -334, -871, -374, -8820, -350, -5670
33977, -331, -869, -372, -7000, -5670, -4130
33997, -330, -871, -374, -4270, -11760, -2380
34017, -329, -866, -372, -6300, -13720, -700
34037, -330, -861, -369, -10570, -9590, -2800
34057, -333, -867, -371, -13580, -5810, -5390
34077, -330, -867, -372, -12250, -9380, -4130
34097, -328, -866, -371, -7630, -15190, -3010
34117, -328, -865, -374, -7070, -16520, -2730
34137, -330, -868, -374, -11200, -14700, -1680
34157, -331, -871, -373, -14280, -11200, -2800
34177, -333, -876, -372, -14350, -9380, -4340
34197, -330, -870, -373, -10920, -13160, -2870
34217, -327, -860, -370, -5250, -18550, -1330
34237, -327, -859, -369, -6370, -17780, -420
34257, -330, -859, -369, -13230, -12390, 630
34277, -326, -859, -369, -14560, -8820, -420
34297, -331, -868, -374, -9240, -10080, -1540
34317, -328, -867, -372, -3080, -13090, -1260
34337, -327, -868, -374, 280, -12390, -2240
34357, -332, -875, -376, -3850, -7840, -1190
34377, -332, -876, -376, -9660, -2660, 420
34397, -332, -877, -378, -7770, -1820, 630
34417, -329, -870, -377, -910, -6020, 2240
34437, -324, -858, -369, 4200, -6650, 1820
34457, -328, -863, -371, 3500, -2030, 560
34477, -328, -863, -370, -1680, 3290, 1890
34497, -330, -863, -371, -2870, 6790, 1820
34517, -327, -864, -373, 2450, 5180, 1820
34537, -326, -858, -370, 9100, 1610, 2870
34557, -328, -860, -369, 10640, 4270, 1400
34577, -331, -868, -374, 6370, 10430, 770
34597, -331, -875, -377, 3360, 13160, 2030
34617, -333, -877, -378, 5740, 12600, 2380
34637, -332, -874, -376, 9870, 11690, 1610
34657, -330, -868, -372, 12670, 11760, 1330
34677, -329, -866, -372, 8820, 13650, 2520
34697, -331, -866, -371, 5320, 15330, 3570
34717, -328, -862, -370, 6160, 14980, 3080
34737, -328, -860, -368, 10220, 12670, 1820
34757, -327, -858, -368, 13370, 10710, 630
34777, -327, -862, -369, 12250, 11760, -420
34797, -332, -868, -371, 6720, 15260, -980
34817, -335, -878, -372, 2870, 15890, -350
34837, -335, -876, -373, 5880, 10990, 210
34857, -332, -868, -372, 9870, 5600, 490
34877, -331, -862, -371, 7560, 4690, 840
34897, -328, -859, -366, 2380, 7700, -560
34917, -331, -868, -370, -910, 8330, -1190
34937, -334, -872, -373, -70, 5040, -1190
34957, -332, -870, -371, 3290, 1750, -2940
34977, -331, -868, -370, 2660, -140, -3150
34997, -328, -864, -368, -1750, -490, -2170
35017, -331, -863, -368, -5810, -910, -1610
35037, -331, -867, -372, -6790, -3710, -770
35057, -330, -865, -372, -4830, -6440, -1960
35077, -329, -863, -370, -3360, -6930, -4620
35097, -329, -863, -368, -5670, -6230, -5600
35117, -330, -864, -369, -9100, -7350, -4200
35137, -332, -874, -375, -10430, -10920, -1750
35157, -333, -874, -373, -9730, -13160, -1680
35177, -330, -868, -373, -8820, -12600, -3920
35197, -329, -866, -371, -9940, -12110, -4270
35217, -326, -858, -364, -10500, -12320, -4480
35237, -328, -866, -371, -11970, -13790, -2800
35257, -331, -871, -376, -13370, -16240, 280
35277, -329, -866, -371, -10850, -15400, -2030
35297, -329, -870, -374, -8610, -14000, -4270
35317, -328, -865, -372, -8890, -13510, -3500
35337, -327, -858, -366, -9520, -11830, -3710
35357, -331, -869, -375, -12040, -12250, -420
35377, -331, -869, -375, -12110, -14140, 2940
35397, -327, -866, -372, -6580, -12600, -700
35417, -330, -871, -377, -3150, -10570, -2870
35437, -330, -870, -374, -3780, -8540, -1960
35457, -330, -865, -368, -5880, -3850, -2730
35477, -334, -873, -374, -8680, -3010, 630
35497, -330, -871, -377, -5530, -7980, 5250
35517, -325, -865, -374, 2450, -8680, 2800
35537, -328, -863, -372, 3150, -2730, -420
35557, -326, -857, -367, -910, 3710, -700
35577, -327, -858, -368, -1820, 6300, 0
35597, -331, -867, -376, -140, 3500, 3640
35617, -327, -868, -374, 4970, -70, 5460
35637, -328, -868, -375, 10010, 1820, 2380
35657, -332, -873, -373, 7700, 9940, -1050
35677, -332, -871, -372, 3990, 16170, -2170
35697, -330, -873, -374, 5250, 13720, 630
35717, -329, -872, -375, 7700, 8260, 4970
35737, -327, -864, -374, 9380, 6580, 6300
35757, -327, -858, -370, 10990, 8750, 4060
35777, -329, -861, -368, 9380, 13930, 1260
35797, -329, -862, -369, 7140, 17990, -560
35817, -332, -870, -372, 8680, 16870, -770
35837, -333, -876, -376, 10150, 12460, 1820
35857, -331, -869, -373, 10500, 10570, 2870
35877, -331, -869, -374, 10920, 11620, 770
35897, -331, -865, -370, 8890, 12460, 490
35917, -329, -860, -368, 5950, 14140, -350
35937, -329, -858, -367, 4620, 12810, 70
35957, -328, -861, -370, 5390, 7350, 2730
35977, -328, -862, -369, 7280, 4130, 2310
35997, -331, -872, -373, 7770, 6300, -1820
36017, -334, -880, -375, 4410, 9520, -4410
36037, -334, -876, -371, 1260, 10290, -4900
36057, -331, -872, -372, 420, 7070, -3920
36077, -328, -866, -372, 840, -1540, 1190
36097, -324, -851, -364, 910, -6790, 3500
36117, -325, -854, -365, -1820, -3360, 70
36137, -329, -860, -369, -6440, 490, -2170
36157, -327, -862, -365, -5600, 280, -4480
36177, -332, -875, -374, -2100, -2310, -6580
36197, -333, -878, -374, -2450, -7210, -3570
36217, -332, -875, -374, -4200, -8750, -2660
36237, -335, -878, -377, -8890, -6090, -3570
36257, -330, -868, -373, -12600, -6440, -1890
36277, -328, -856, -365, -9730, -10430, -1680
36297, -325, -855, -366, -7070, -13580, -1750
36317, -329, -855, -366, -10010, -13720, -560
36337, -328, -864, -369, -11690, -12250, -1400
36357, -333, -875, -375, -11130, -10920, -3710
36377, -331, -870, -373, -10290, -10920, -4270
36397, -328, -868, -370, -9100, -12810, -3220
36417, -331, -872, -373, -11270, -14070, -280
36437, -331, -872, -374, -10920, -14980, 770
36457, -330, -871, -374, -9240, -14070, -210
36477, -328, -863, -371, -9450, -10360, -2310
36497, -326, -854, -364, -8680, -8470, -3220
36517, -326, -858, -370, -6930, -11200, -700
36537, -328, -868, -375, -5250, -13440, 1680
36557, -332, -875, -378, -4690, -10080, 70
36577, -331, -876, -376, -4480, -4760, -2660
36597, -330, -873, -374, -4130, -1820, -3430
36617, -330, -864, -368, -2660, -2800, -1540
36637, -326, -863, -373, -1050, -6860, 3010
36657, -328, -864, -375, 0, -8540, 5880
36677, -325, -859, -371, 70, -2380, 2660
36697, -328, -861, -371, -140, 5600, -1890
36717, -327, -860, -369, 2310, 7630, -2940
36737, -328, -863, -371, 6790, 4620, -1400
36757, -331, -872, -376, 8190, 1400, 2590
36777, -329, -873, -377, 6300, 3220, 4340
36797, -330, -871, -375, 4340, 10080, 1680
36817, -331, -866, -371, 4970, 13860, -140
36837, -326, -862, -371, 9520, 11480, 490
36857, -327, -864, -371, 12390, 8540, 2380
36877, -328, -870, -374, 10080, 9730, 3990
36897, -331, -872, -376, 6930, 14420, 2870
36917, -332, -873, -375, 6790, 18480, 0
36937, -332, -872, -372, 9660, 17780, -1120
36957, -329, -872, -374, 13160, 12950, 630
36977, -329, -870, -373, 12320, 10150, 3080
36997, -330, -865, -371, 6650, 12530, 4060
37017, -330, -861, -369, 3080, 15750, 2520
37037, -329, -858, -366, 4620, 15120, 630
37057, -330, -863, -368, 9030, 11130, -560
37077, -328, -864, -368, 11550, 7000, -560
37097, -328, -868, -371, 8120, 7070, -140
37117, -332, -870, -370, 560, 10220, 70
37137, -332, -866, -370, -2310, 10640, -840
37157, -332, -871, -372, 1190, 5810, -1610
37177, -331, -871, -373, 4830, -700, -910
37197, -330, -866, -367, 4060, -1820, -2170
37217, -332, -866, -371, -2240, 770, -2940
37237, -332, -868, -370, -8610, 1050, -1470
37257, -330, -864, -368, -7420, -2450, -2030
37277, -330, -865, -370, -2730, -8470, -2450
37297, -329, -862, -368, -2170, -12110, -1890
37317, -329, -859, -365, -5530, -8820, -4760
37337, -332, -868, -372, -11340, -5670, -5670
37357, -332, -869, -371, -13510, -9170, -2590
37377, -330, -868, -372, -9100, -14210, -2730
37397, -330, -872, -374, -5950, -16800, -3640
37417, -328, -866, -371, -7560, -16030, -3990
37437, -330, -862, -368, -11410, -12250, -5320
37457, -332, -867, -372, -15820, -10990, -3780
37477, -328, -863, -371, -14420, -15470, -700
37497, -327, -864, -371, -7910, -20090, -770
37517, -331, -870, -373, -6160, -18830, -2380
37537, -328, -865, -369, -9240, -12460, -4900
37557, -333, -871, -373, -11970, -8260, -5530
37577, -333, -877, -378, -12810, -10920, -1050
37597, -327, -866, -373, -8190, -15120, 1260
37617, -327, -867, -377, -3150, -15890, 420
37637, -328, -864, -373, -5110, -11830, 630
37657, -327, -858, -367, -8330, -4130, -1680
37677, -331, -869, -373, -7420, -1400, -2520
37697, -329, -869, -375, -4130, -5950, 1960
37717, -326, -859, -371, 420, -7210, 2450
37737, -330, -868, -375, 1260, -3500, 1120
37757, -328, -865, -372, -1400, 700, 2030
37777, -331, -870, -374, -1050, 5600, -280
37797, -331, -873, -374, 770, 6580, -70
37817, -326, -864, -372, 3920, 3220, 3080
37837, -326, -861, -371, 7210, 2380, 3780
37857, -330, -865, -374, 5600, 6090, 3430
37877, -331, -868, -373, 2940, 11060, 2590
37897, -332, -870, -373, 4620, 13300, 910
37917, -331, -873, -373, 8050, 12740, 140
37937, -329, -865, -372, 10430, 10430, 1540
37957, -329, -863, -370, 10850, 9380, 2870
37977, -329, -866, -373, 7420, 10990, 4060
37997, -329, -859, -369, 4690, 14000, 3360
38017, -328, -864, -368, 6650, 14840, 1050
38037, -328, -860, -369, 10220, 12460, 210
38057, -329, -863, -371, 12110, 10640, -140
38077, -333, -877, -376, 10290, 10430, 280
38097, -334, -877, -375, 6370, 11480, 910
38117, -333, -877, -372, 5040, 13300, -1190
38137, -331, -869, -370, 6230, 11620, -1960
38157, -324, -859, -367, 7280, 4340, 210
38177, -328, -861, -370, 3780, 3780, 1050
38197, -330, -864, -372, 840, 4620, 420
38217, -330, -865, -369, 700, 6370, -3150
38237, -333, -867, -370, 2240, 5250, -5110
38257, -331, -868, -370, 4550, 70, -4130
38277, -328, -864, -368, 3220, -3080, -2450
38297, -330, -865, -371, -3360, -2590, -350
38317, -329, -866, -372, -7280, -1960, 0
38337, -330, -866, -369, -5180, -2380, -2870
38357, -330, -870, -373, -2310, -3990, -4970
38377, -330, -870, -369, -840, -6580, -5180
38397, -329, -867, -370, -2660, -7980, -4130
38417, -332, -877, -377, -9450, -7630, -910
38437, -333, -874, -374, -12530, -6650, -770
38457, -330, -868, -372, -8820, -8400, -2730
38477, -326, -861, -368, -5530, -12180, -2100
38497, -325, -848, -362, -5880, -12320, -2380
38517, -325, -855, -366, -9800, -10710, -1610
38537, -329, -866, -372, -13300, -10360, 350
38557, -331, -871, -374, -10990, -10570, -1050
38577, -330, -874, -375, -6510, -10640, -3640
38597, -329, -872, -373, -5530, -9940, -4340
38617, -330, -873, -373, -7980, -9590, -2450
38637, -331, -873, -375, -10570, -10500, 770
38657, -331, -875, -378, -11270, -11760, 3220
38677, -330, -868, -372, -9310, -10780, 2170
38697, -326, -856, -367, -6020, -7700, -1680
38717, -325, -859, -369, -4970, -7420, -1260
38737, -329, -863, -373, -5110, -8120, 840
38757, -330, -870, -374, -5670, -5950, 560
38777, -333, -874, -380, -6160, -3990, 910
38797, -330, -867, -373, -3990, -3150, 490
38817, -326, -862, -368, -420, -2240, -1190
38837, -326, -862, -372, 280, -3080, 630
38857, -328, -866, -374, -70, -3640, 3080
38877, -329, -868, -375, -1120, -210, 2310
38897, -332, -870, -376, -1400, 4060, 420
38917, -330, -868, -373, 2240, 4620, -840
38937, -328, -866, -371, 7140, 3360, -1540
38957, -329, -873, -376, 6370, 3150, 630
38977, -328, -868, -373, 3430, 4690, 2660
38997, -330, -868, -374, 2310, 8050, 1540
39017, -327, -864, -372, 2940, 8890, 1680
39037, -324, -854, -365, 7630, 7070, 980
39057, -327, -858, -368, 11270, 6020, 70
39077, -330, -869, -373, 7980, 8820, 490
39097, -332, -874, -374, 4690, 12740, -420
39117, -332, -876, -375, 6300, 13160, -1680
39137, -331, -875, -375, 8960, 10850, -1400
39157, -329, -869, -373, 10430, 8610, -490
39177, -328, -867, -371, 9170, 7840, 420
39197, -329, -866, -371, 4970, 8610, 2030
39217, -329, -863, -371, 2800, 10010, 1470
39237, -330, -866, -370, 5110, 9520, -630
39257, -330, -864, -368, 8050, 7560, -2100
39277, -327, -866, -368, 9100, 6580, -3150
39297, -331, -866, -372, 5670, 6160, -1680
39317, -332, -868, -372, 910, 6300, 70
39337, -333, -869, -374, -350, 5460, 70
39357, -330, -868, -371, 2100, 2800, -910
39377, -330, -864, -372, 3780, 1190, -2240
39397, -330, -862, -368, 2310, 1330, -2940
39417, -330, -864, -369, -1190, 1470, -2450
39437, -331, -871, -374, -4130, -630, -350
39457, -331, -866, -371, -4340, -3080, 140
39477, -330, -863, -370, -2590, -3850, -2030
39497, -330, -864, -370, -2520, -4550, -2870
39517, -329, -863, -368, -4270, -5180, -2730
39537, -332, -870, -373, -6930, -5180, -2380
39557, -331, -872, -374, -9380, -7000, -350
39577, -331, -869, -371, -7770, -9380, -420
39597, -331, -869, -373, -5110, -9940, -2730
39617, -328, -865, -368, -6440, -9100, -3220
39637, -328, -861, -369, -9730, -7910, -2660
39657, -329, -865, -373, -12110, -9450, -140
39677, -330, -867, -372, -11200, -12740, 1820
39697, -329, -864, -371, -7420, -13440, -350
39717, -327, -864, -369, -6160, -10990, -3290
39737, -329, -864, -369, -8470, -8680, -3290
39757, -329, -867, -373, -10290, -8820, -1470
39777, -330, -872, -377, -9800, -10990, 490
39797, -330, -871, -377, -7840, -12740, 1610
39817, -329, -867, -373, -5810, -11060, -140
39837, -329, -866, -371, -5600, -7000, -2660
39857, -328, -867, -372, -6440, -5110, -2590
39877, -328, -869, -374, -5950, -7140, 280
39897, -327, -863, -372, -4970, -8960, 2730
39917, -327, -862, -371, -3290, -3080, -350
39937, -328, -863, -372, -1470, -1470, -1260
39957, -328, -867, -371, 630, -770, -1680
39977, -330, -867, -373, 1050, -490, -490
39997, -331, -872, -375, -70, 0, 1750
40017, -330, -871, -375, 280, 2240, 1190
40037, -330, -869, -373, 2450, 4060, -350
40057, -328, -868, -375, 5180, 3360, 70
40077, -328, -864, -374, 6090, 4480, -140
40097, -329, -864, -368, 3850, 7560, 0
40117, -330, -865, -373, 2660, 7700, 1960
40137, -329, -865, -373, 5600, 6580, 1890
40157, -329, -870, -373, 8470, 7560, -70
40177, -331, -872, -375, 9030, 9520, -1470
40197, -330, -870, -373, 8470, 11410, -2100
40217, -329, -869, -371, 5810, 12110, -560
40237, -330, -866, -372, 4760, 10010, 2100
40257, -325, -859, -369, 7280, 6650, 3290
40277, -328, -863, -373, 8540, 6650, 2240
40297, -328, -863, -369, 7910, 10920, -1540
40317, -330, -865, -370, 7490, 13790, -4340
40337, -332, -871, -375, 6090, 11830, -2310
40357, -332, -871, -373, 5460, 8400, 140
40377, -329, -870, -374, 6090, 5320, 1190
40397, -332, -869, -373, 5040, 4270, 1680
40417, -330, -862, -368, 3290, 6790, -700
40437, -327, -854, -365, 2310, 8260, -2940
40457, -327, -857, -367, 1330, 4340, -350
40477, -328, -862, -371, 1610, 70, 1680
40497, -331, -869, -372, 2170, 280, -700
40517, -333, -880, -377, 630, 2380, -3080
40537, -333, -880, -374, -1330, 4060, -4760
40557, -332, -871, -370, -2310, 3290, -5250
40577, -330, -867, -372, -3360, -3570, -280
40597, -328, -859, -370, -3850, -10780, 4830
40617, -327, -852, -365, -5600, -9100, 2730
40637, -327, -852, -366, -8750, -3850, -1330
40657, -328, -858, -370, -7910, -3850, -3010
40677, -327, -862, -367, -3850, -6230, -5040
40697, -333, -877, -375, -3990, -7910, -4620
40717, -334, -883, -380, -7490, -10430, -700
40737, -332, -875, -373, -9520, -9730, -700
40757, -333, -875, -377, -10990, -8470, -1540
40777, -329, -864, -371, -9240, -11340, -350
40797, -328, -855, -367, -6860, -12950, -910
40817, -328, -861, -369, -9310, -11900, -280
40837, -327, -864, -372, -10780, -11760, 770
40857, -330, -871, -374, -8120, -11760, -770
40877, -333, -874, -375, -7490, -9030, -3010
40897, -330, -871, -374, -7350, -7560, -3430
40917, -329, -867, -370, -6020, -9170, -2030
40937, -329, -867, -373, -7210, -10220, 630
40957, -327, -862, -372, -8120, -10710, 3010
40977, -327, -859, -371, -5880, -10360, 2590
40997, -327, -861, -369, -4900, -6020, -350
41017, -329, -865, -373, -4340, -1400, -3150
41037, -329, -874, -374, -980, -2380, -2940
41057, -329, -876, -376, 630, -3780, -1120
41077, -332, -875, -378, -1540, -1610, 210
41097, -330, -865, -374, -2170, -630, 1750
41117, -327, -860, -371, 0, 0, 1400
41137, -325, -857, -368, 1330, 1680, 700
41157, -324, -852, -366, 3080, 2170, 700
41177, -326, -856, -370, 3850, 3080, 1050
41197, -330, -864, -371, 2450, 5810, 1190
41217, -332, -878, -380, 4480, 7490, -210
41237, -333, -883, -378, 8750, 8050, -2100
41257, -334, -880, -378, 8820, 11270, -3640
41277, -331, -876, -376, 6020, 12530, -1750
41297, -328, -864, -371, 5110, 9380, 2380
41317, -330, -860, -371, 5250, 7700, 3990
41337, -327, -856, -370, 5950, 7070, 4340
41357, -323, -850, -363, 8330, 7910, 2240
41377, -328, -856, -364, 8540, 12950, -2520
41397, -331, -869, -373, 6300, 15470, -3570
41417, -331, -875, -373, 7630, 11270, -1260
41437, -332, -876, -377, 10220, 7770, -700
41457, -333, -872, -376, 7420, 7980, 350
41477, -329, -858, -366, 4060, 9240, 630
41497, -330, -862, -369, 3920, 9940, -1190
41517, -330, -868, -373, 3570, 6860, 420
41537, -327, -865, -370, 5040, 2380, 2030
41557, -330, -871, -373, 5880, 3500, -1190
41577, -333, -870, -371, 1190, 7000, -2450
41597, -329, -863, -368, -700, 6510, -2310
41617, -330, -866, -373, 1680, 2100, -1960
41637, -330, -864, -371, 210, -2310, 1330
41657, -327, -860, -368, -1680, -3150, 1470
41677, -331, -864, -370, -4690, -490, -2310
41697, -331, -866, -369, -4550, -1960, -2870
41717, -330, -868, -370, -2310, -5600, -3010
41737, -332, -875, -375, -4200, -8330, -700
41757, -333, -875, -375, -6930, -8120, -420
41777, -328, -864, -369, -7910, -6790, -2170
41797, -330, -865, -371, -9730, -7980, -910
41817, -328, -856, -366, -8680, -10710, -140
41837, -327, -857, -368, -6510, -12670, -840
41857, -329, -868, -374, -7910, -12740, -140
41877, -328, -867, -371, -9240, -9450, -2520
41897, -331, -868, -371, -9590, -7560, -3990
41917, -331, -870, -375, -9520, -9730, -1750
41937, -330, -867, -371, -7280, -12600, -560
41957, -330, -867, -374, -6510, -13720, 350
41977, -329, -871, -376, -8610, -11760, 910
41997, -328, -865, -371, -9100, -8120, -1050
42017, -328, -862, -370, -8120, -5950, -2590
42037, -328, -862, -371, -6860, -7980, -350
42057, -327, -863, -372, -4270, -10710, 1540
42077, -327, -863, -373, -3080, -9310, 840
42097, -330, -874, -379, -5180, -4830, 0
42117, -331, -876, -373, -5040, -280, -2380
42137, -330, -871, -372, -2590, 1330, -3990
42157, -330, -867, -372, -560, -2660, -70
42177, -328, -862, -372, 700, -7070, 4550
42197, -326, -858, -371, -280, -4340, 4340
42217, -329, -866, -375, -3080, 2870, 1470
42237, -330, -865, -372, -840, 7070, -1960
42257, -327, -863, -369, 5390, 6790, -4480
42277, -328, -870, -372, 7700, 3710, -1960
42297, -330, -872, -374, 5810, 2100, 2240
42317, -328, -871, -373, 2310, 5950, 2240
42337, -332, -872, -375, 70, 10360, 1120
42357, -329, -863, -371, 4340, 9800, -210
42377, -327, -860, -367, 10850, 7350, -1890
42397, -328, -861, -369, 9870, 7210, -700
42417, -330, -864, -372, 5180, 8890, 1330
42437, -332, -867, -373, 2940, 10290, 1680
42457, -331, -871, -373, 4760, 10500, 210
42477, -329, -866, -372, 9240, 9660, -2310
42497, -330, -867, -370, 11340, 8680, -3150
42517, -331, -869, -372, 7280, 9520, -1820
42537, -330, -866, -370, 3150, 9870, -140
42557, -330, -867, -373, 2940, 6160, 2380
42577, -326, -860, -368, 5250, 4060, 1750
42597, -325, -855, -364, 6440, 6650, -2590
42617, -327, -858, -367, 5250, 6930, -3080
42637, -329, -865, -371, 3570, 4410, -840
42657, -332, -875, -375, 2590, 3500, -770
42677, -334, -880, -377, 1820, 3500, -1470
42697, -332, -876, -375, 1330, 3010, -1820
42717, -330, -867, -368, 1120, 3220, -3290
42737, -331, -865, -369, -490, 1190, -1820
42757, -329, -862, -369, -1750, -3850, 2100
42777, -329, -861, -370, -2870, -5040, 2240
42797, -328, -860, -370, -4690, -2730, 140
42817, -328, -858, -365, -4200, -1610, -2380
42837, -329, -864, -368, -2590, -2520, -4060
42857, -332, -871, -373, -3710, -4620, -2660
42877, -329, -873, -374, -5320, -7280, -350
42897, -333, -874, -373, -6790, -8260, 560
42917, -330, -867, -371, -8540, -7350, 280
42937, -328, -861, -367, -7700, -6930, -1260
42957, -329, -863, -369, -6720, -8330, -1260
42977, -330, -870, -374, -7770, -9800, 280
42997, -331, -872, -374, -8610, -9660, 420
43017, -331, -875, -374, -7770, -8890, -840
43037, -330, -867, -371, -7420, -8610, -1120
43057, -328, -859, -367, -7210, -8260, -1330
43077, -329, -861, -371, -8050, -8750, 0
43097, -330, -864, -372, -9030, -10920, 3150
43117, -328, -864, -372, -7980, -10500, 2520
43137, -330, -871, -374, -5740, -7770, -490
43157, -329, -869, -370, -4760, -5180, -2450
43177, -330, -870, -371, -3850, -3500, -3500
43197, -331, -875, -377, -4620, -4060, -1540
43217, -328, -866, -372, -5320, -7070, 2800
43237, -328, -863, -371, -3570, -7140, 2870
43257, -328, -861, -371, -3290, -3850, 1050
43277, -326, -857, -369, -2520, -910, -630
43297, -329, -864, -372, -280, 630, -2450
43317, -330, -868, -373, 140, 490, -1260
43337, -330, -871, -375, 70, 350, 0
43357, -330, -874, -377, 1890, -70, 490
43377, -329, -869, -370, 2870, 1610, -490
43397, -330, -865, -370, 2660, 5390, -2520
43417, -327, -863, -371, 2240, 3360, 980
43437, -329, -865, -372, 4410, 3150, 1050
43457, -332, -872, -376, 5530, 4690, -280
43477, -330, -867, -371, 6930, 7350, -2870
43497, -330, -866, -372, 5950, 9520, -3430
43517, -329, -863, -370, 4480, 9100, -1540
43537, -328, -865, -371, 5740, 5950, 560
43557, -330, -871, -374, 7000, 3990, 1610
43577, -330, -870, -374, 6720, 7420, -1190
43597, -330, -867, -371, 5810, 11410, -4060
43617, -330, -864, -368, 5740, 10500, -3360
43637, -327, -858, -369, 6440, 6300, -560
43657, -328, -864, -372, 5530, 3010, 2520
43677, -330, -866, -373, 4060, 4060, 2030
43697, -331, -869, -372, 3640, 8260, -2030
43717, -332, -869, -370, 4480, 9590, -4340
43737, -330, -868, -370, 6020, 7000, -3850
43757, -329, -870, -372, 4550, 3850, -1120
43777, -331, -870, -373, 420, 1820, 2380
43797, -329, -869, -373, -1260, 1050, 3150
43817, -329, -865, -370, 280, 1330, 840
43837, -328, -861, -368, 1610, 3010, -2800
43857, -328, -860, -367, 490, 3220, -3360
43877, -329, -861, -369, -2100, 490, -420
43897, -331, -869, -374, -4200, -2870, 2590
43917, -330, -869, -374, -3570, -4340, 2240
43937, -331, -872, -373, -2310, -3290, -840
43957, -329, -866, -370, -3010, -1190, -3290
43977, -328, -861, -366, -5250, -910, -3220
43997, -329, -861, -368, -7490, -5530, 1330
44017, -329, -866, -373, -7840, -10570, 4760
44037, -332, -867, -374, -6300, -10220, 2310
44057, -331, -870, -373, -5740, -6440, -1960
44077, -329, -864, -369, -6370, -3780, -4480
44097, -329, -862, -366, -7280, -4970, -3360
44117, -332, -869, -374, -9240, -10570, 2450
44137, -329, -867, -374, -9240, -13790, 4970
44157, -333, -876, -379, -8400, -11200, 1960
44177, -330, -871, -372, -6860, -6860, -2660
44197, -330, -868, -370, -4830, -3990, -6510
44217, -331, -869, -371, -6440, -6300, -3010
44237, -329, -864, -371, -8820, -10500, 2590
44257, -330, -868, -374, -8260, -13090, 4900
44277, -327, -864, -373, -6720, -11620, 3430
44297, -327, -858, -368, -4550, -5390, -2660
44317, -327, -859, -368, -3430, -1050, -6300
44337, -331, -867, -372, -4060, -2170, -3990
44357, -330, -871, -374, -3430, -6440, 350
44377, -332, -876, -379, -1750, -8680, 2310
44397, -330, -870, -376, -980, -5880, 840
44417, -328, -862, -369, -770, 140, -3080
44437, -328, -862, -369, -1120, 3570, -4480
44457, -328, -863, -371, -840, 1190, -1190
44477, -328, -869, -375, 1750, -2660, 1680
44497, -331, -873, -379, 3780, -2590, 1750
44517, -330, -868, -371, 3640, 3430, -1960
44537, -330, -865, -369, 3220, 9380, -5460
44557, -330, -867, -371, 3430, 8890, -3850
44577, -329, -868, -374, 5040, 4620, -140
44597, -330, -870, -375, 5950, 1750, 2800
44617, -328, -866, -374, 5880, 3570, 2310
44637, -328, -867, -371, 5810, 8890, -1330
44657, -329, -862, -368, 6020, 13230, -4480
44677, -328, -865, -370, 6370, 12600, -3640
44697, -329, -870, -375, 6790, 7210, 1260
44717, -328, -866, -371, 7840, 4060, 3570
44737, -331, -871, -376, 7560, 6580, 1610
44757, -331, -868, -371, 4900, 12040, -1260
44777, -329, -862, -367, 4550, 15750, -4690
44797, -331, -869, -373, 6230, 11970, -3080
44817, -328, -865, -372, 6790, 3500, 3430
44837, -327, -861, -370, 6440, 1750, 4270
44857, -329, -864, -372, 3010, 6580, 1330
44877, -328, -861, -368, 560, 9590, -560
44897, -329, -862, -367, 2660, 8960, -2730
44917, -332, -875, -374, 4130, 5670, -2240
44937, -331, -875, -375, 3220, 560, 1400
44957, -332, -876, -376, 2170, -980, 1960
44977, -332, -870, -372, -1960, 2590, 70
44997, -329, -860, -367, -4620, 4270, -1120
45017, -327, -861, -368, -2590, 490, -980
45037, -327, -859, -369, -1820, -4550, 1050
45057, -327, -860, -371, -3640, -6090, 1750
45077, -330, -864, -371, -5390, -6300, 1540
45097, -330, -864, -370, -6440, -5180, -280
45117, -329, -868, -372, -6020, -3640, -3430
45137, -331, -871, -371, -5460, -5530, -3430
45157, -331, -872, -375, -6300, -8750, -1120
45177, -332, -870, -376, -9170, -11760, 1540
45197, -329, -866, -373, -7840, -12600, 980
45217, -330, -865, -372, -8120, -9380, -2100
45237, -330, -867, -371, -9240, -6580, -4060
45257, -330, -866, -371, -8680, -9030, -2380
45277, -330, -868, -373, -7700, -14000, 1540
45297, -330, -869, -376, -6580, -14840, 1890
45317, -328, -867, -372, -6370, -10780, -1190
45337, -329, -867, -374, -8890, -5460, -3220
45357, -330, -864, -371, -9730, -3570, -3290
45377, -328, -860, -368, -5670, -7840, -1400
45397, -329, -869, -375, -2100, -13440, 2310
45417, -329, -872, -378, -2170, -11200, 1890
45437, -330, -870, -374, -4760, -2030, -3080
45457, -331, -868, -372, -6930, 3080, -4410
45477, -329, -864, -369, -4270, 70, -1890
45497, -327, -860, -370, 1260, -6020, 1120
45517, -329, -863, -374, 2800, -8050, 3360
45537, -327, -865, -377, 70, -2310, 2030
45557, -329, -863, -370, -1820, 6930, -3150
45577, -329, -863, -368, -210, 9940, -5320
45597, -328, -868, -371, 4340, 4270, -1750
45617, -329, -871, -377, 7560, -420, 1540
45637, -330, -875, -378, 5390, 2450, 1680
45657, -332, -873, -376, 1960, 8750, -70
45677, -330, -869, -373, 2730, 12180, -2450
45697, -328, -859, -366, 6440, 10640, -2870
45717, -328, -864, -371, 8190, 5740, 840
45737, -327, -861, -371, 7280, 4200, 3360
45757, -330, -867, -374, 5390, 8190, 1260
45777, -332, -869, -375, 4970, 11760, -1330
45797, -331, -867, -371, 7280, 13230, -4270
45817, -329, -866, -369, 8400, 11830, -4060
45837, -332, -867, -375, 7280, 6650, 980
45857, -327, -866, -373, 6370, 2870, 4340
45877, -329, -865, -373, 4760, 5880, 1960
45897, -331, -867, -371, 2380, 10430, -1120
45917, -328, -863, -368, 3920, 10500, -3010
45937, -326, -861, -366, 7210, 7280, -3640
45957, -330, -870, -376, 6160, 2380, 280
45977, -329, -870, -373, 2870, 560, 2870
45997, -330, -869, -373, 420, 4130, 0
46017, -332, -868, -373, -1470, 5950, -1540
46037, -329, -861, -367, 910, 2450, -1330
46057, -326, -860, -367, 3150, -980, -1400
46077, -330, -868, -373, -420, -2730, 1190
46097, -331, -866, -371, -3710, -2800, 2170
46117, -330, -868, -371, -3850, -980, -840
46137, -332, -869, -373, -4060, -700, -2030
46157, -327, -864, -369, -2170, -3640, -1820
46177, -329, -864, -369, -1540, -6020, -1330
46197, -331, -867, -373, -6300, -6720, 1610
46217, -330, -864, -371, -8680, -7210, 2940
46237, -329, -866, -373, -6090, -7280, 560
46257, -329, -864, -373, -4690, -7140, -910
46277, -326, -858, -368, -4340, -6160, -2240
46297, -330, -869, -374, -6370, -5670, -1540
46317, -333, -872, -375, -10080, -6720, 1820
46337, -331, -875, -376, -8960, -7770, 1960
46357, -333, -878, -377, -5810, -9030, 1120
46377, -329, -867, -372, -4900, -7350, -560
46397, -329, -864, -371, -6160, -3710, -2730
46417, -329, -868, -372, -8750, -4620, 210
46437, -328, -862, -372, -9310, -7350, 3220
46457, -328, -866, -373, -6720, -7700, 1960
46477, -329, -865, -374, -5040, -7070, 840
46497, -327, -860, -369, -3430, -4900, -1610
46517, -330, -863, -371, -3640, -2240, -3430
46537, -329, -868, -373, -5950, -2310, -1190
46557, -333, -873, -377, -6370, -3640, 700
46577, -330, -874, -376, -4060, -4760, 770
46597, -328, -867, -374, -420, -4900, -910
46617, -326, -863, -368, 1680, -3360, -2940
46637, -330, -865, -371, -1120, -70, -3150
46657, -330, -866, -372, -5040, 1820, -1540
46677, -329, -872, -377, -3500, -560, 280
46697, -330, -869, -377, 2100, -3780, 140
46717, -330, -867, -372, 6300, -2730, -2730
46737, -330, -865, -370, 4760, 2450, -5390
46757, -330, -869, -373, 210, 6510, -4900
46777, -330, -867, -374, -1890, 5600, -1960
46797, -329, -867, -375, 1750, 0, 1400
46817, -326, -862, -372, 7420, -2940, 980
46837, -327, -858, -367, 8960, 1260, -2940
46857, -331, -865, -372, 4760, 8330, -5530
46877, -331, -872, -373, 1120, 10220, -3920
46897, -332, -877, -377, 3150, 6650, -1540
46917, -330, -873, -377, 7840, 2030, -140
46937, -330, -869, -372, 7000, 6650, -2240
46957, -328, -861, -369, 3010, 10710, -2730
46977, -329, -860, -368, 2520, 8330, 70
46997, -328, -862, -371, 5390, 2940, 3220
47017, -329, -862, -372, 7280, 2870, 2100
47037, -328, -865, -373, 6300, 7070, -770
47057, -329, -866, -371, 5040, 10290, -2660
47077, -331, -872, -370, 4270, 9590, -1680
47097, -332, -875, -372, 3220, 7000, 980
47117, -331, -874, -372, 2240, 4760, 3080
47137, -329, -868, -374, 2100, 2940, 4340
47157, -327, -860, -368, 2030, 3570, 2870
47177, -327, -855, -365, 1260, 5320, 770
47197, -327, -862, -369, -560, 4200, 1960
47217, -329, -867, -370, -910, 2800, 2100
47237, -332, -870, -372, -1330, 2940, 770
47257, -332, -875, -373, -2030, 1750, 980
47277, -332, -873, -374, -1330, -70, 490
47297, -330, -869, -371, -2240, -980, 210
47317, -330, -864, -370, -6160, -2940, 2870
47337, -328, -864, -371, -7840, -5460, 4620
47357, -328, -859, -370, -7070, -5530, 2170
47377, -329, -861, -369, -6020, -5460, -210
47397, -329, -863, -370, -5320, -7000, -630
47417, -330, -866, -370, -6230, -6160, -2310
47437, -333, -875, -376, -9030, -6160, -1750
47457, -332, -875, -377, -8960, -9870, 490
47477, -331, -870, -373, -7140, -11130, -630
47497, -331, -865, -370, -8680, -9730, -1610
47517, -328, -858, -369, -9170, -10360, -1330
47537, -328, -862, -370, -8190, -11900, -1260
47557, -331, -867, -373, -9170, -11130, -1610
47577, -330, -866, -373, -8470, -10290, -2730
47597, -329, -869, -374, -5880, -10850, -3640
47617, -329, -869, -373, -5390, -9870, -4480
47637, -329, -868, -372, -6230, -8120, -4830
47657, -330, -868, -373, -7070, -9240, -2310
47677, -328, -864, -372, -6720, -10150, -630
47697, -327, -863, -372, -4760, -8540, -2100
47717, -328, -863, -373, -2310, -7070, -3570
47737, -326, -862, -372, -910, -5040, -4620
47757, -330, -869, -374, -1680, -2730, -4200
47777, -330, -870, -375, -2030, -1470, -3080
47797, -330, -873, -376, -350, -1330, -2310
47817, -329, -872, -377, 1750, -1540, -1330
47837, -329, -862, -369, 3430, 910, -2450
47857, -328, -864, -372, 2940, 4550, -3220
47877, -328, -866, -374, 1960, 5040, -840
47897, -330, -866, -374, 4130, 4550, -70
47917, -329, -871, -376, 6160, 5670, -700
47937, -329, -868, -373, 6720, 7560, -700
47957, -327, -858, -370, 7280, 9870, -1540
47977, -330, -865, -372, 6720, 10780, -560
47997, -330, -868, -373, 5600, 10430, 1680
48017, -329, -869, -373, 6790, 10990, 1120
48037, -329, -869, -372, 7910, 10850, 1260
48057, -327, -863, -369, 9310, 10080, 1610
48077, -328, -860, -368, 9520, 11480, 350
48097, -331, -869, -374, 5810, 13090, 1470
48117, -332, -869, -372, 3850, 12390, 3010
48137, -330, -874, -376, 6720, 10220, 2240
48157, -331, -871, -373, 8610, 8820, 1470
48177, -328, -867, -371, 8050, 9170, 630
48197, -330, -865, -370, 5180, 10010, 560
48217, -332, -866, -370, 1050, 9310, 2450
48237, -330, -865, -375, -70, 5670, 4760
48257, -329, -862, -370, 2800, 1890, 4410
48277, -328, -856, -367, 4550, 2170, 980
48297, -328, -859, -370, 2170, 3850, -770
48317, -331, -864, -369, -1890, 3780, 70
48337, -331, -872, -371, -4130, 2380, 560
48357, -333, -879, -378, -3150, -1890, 1400
48377, -331, -874, -375, -700, -6370, 1750
48397, -330, -865, -368, -980, -4690, -1540
48417, -329, -866, -371, -5600, -1750, -3080
48437, -330, -860, -368, -9170, -5110, 490
48457, -328, -859, -369, -8680, -9590, 2170
48477, -327, -863, -373, -7700, -11830, 1750
48497, -326, -859, -370, -6090, -13160, 630
48517, -329, -862, -367, -5460, -9660, -4130
48537, -334, -877, -376, -9660, -4480, -6860
48557, -332, -880, -379, -11550, -7910, -3150
48577, -332, -876, -376, -7350, -14770, -630
48597, -329, -870, -374, -6580, -15470, -840
48617, -327, -856, -369, -9590, -13230, -630
48637, -326, -855, -365, -9660, -10780, -2660
48657, -330, -863, -371, -10360, -8820, -3710
48677, -328, -865, -376, -10360, -10920, -1260
48697, -327, -868, -373, -3780, -11620, -3220
48717, -331, -874, -376, -6580, -5950, -4970
48737, -331, -870, -372, -6230, -4060, -5390
48757, -330, -871, -373, -5600, -5600, -3010
48777, -330, -866, -374, -6020, -7280, 630
48797, -325, -857, -372, -2870, -8890, 1680
48817, -326, -860, -372, -700, -7490, 910
48837, -329, -864, -373, -1890, 0, -2940
48857, -330, -867, -371, -1260, 5810, -6580
48877, -332, -875, -376, 700, 3850, -3990
48897, -331, -876, -376, 2520, 1610, -1330
48917, -330, -872, -376, 3920, 560, 490
48937, -328, -869, -376, 3150, 700, 2870
48957, -327, -862, -372, 1260, 6580, 630
48977, -328, -857, -368, 1470, 11410, -2310
48997, -326, -857, -368, 5530, 8540, -1190
49017, -327, -863, -372, 8890, 4480, 1330
49037, -327, -867, -373, 8120, 7000, 560
49057, -332, -874, -375, 5810, 11760, -1190
49077, -333, -881, -379, 5110, 13090, -980
49097, -332, -874, -371, 7000, 13090, -1960
49117, -329, -865, -370, 8750, 10150, -490
49137, -331, -866, -374, 7420, 5040, 4900
49157, -326, -855, -368, 5460, 6440, 4550
49177, -328, -858, -368, 4620, 10710, 630
49197, -329, -868, -373, 5880, 9730, 420
49217, -326, -861, -367, 8610, 9870, -2450
49237, -329, -865, -368, 7000, 10990, -3430
49257, -332, -877, -378, 3710, 5810, 2450
49277, -329, -870, -374, 4760, 1750, 3990
49297, -330, -872, -371, 3920, 4830, 280
49317, -331, -871, -374, 490, 6440, 140
49337, -326, -856, -365, 2030, 4620, -910
49357, -330, -862, -368, 2240, 2240, -910
49377, -331, -866, -375, -70, -3010, 3920
49397, -327, -862, -369, 910, -4970, 3290
49417, -332, -868, -371, -1750, 490, -1330
49437, -332, -871, -373, -6370, 4340, -2940
49457, -329, -866, -366, -2100, -210, -3500
49477, -331, -870, -374, 840, -7840, -420
49497, -330, -869, -374, -3570, -10920, 4130
49517, -326, -855, -367, -6720, -7980, 2310
49537, -330, -863, -370, -9520, -3780, -630
49557, -331, -866, -370, -10150, -3430, -1400
49577, -328, -864, -369, -3570, -7420, -3500
49597, -332, -876, -377, -1330, -12040, -1680
49617, -331, -876, -376, -6860, -11060, 840
49637, -331, -873, -373, -10220, -6650, -1260
49657, -333, -875, -374, -11060, -6160, -1260
49677, -330, -863, -371, -9660, -8400, -140
49697, -324, -852, -365, -5670, -10570, -1120
49717, -325, -858, -369, -5040, -12740, 560
49737, -328, -859, -372, -8260, -11620, 2170
49757, -328, -864, -368, -9240, -6230, -1540
49777, -332, -875, -376, -8470, -3010, -4270
49797, -332, -876, -376, -5740, -4690, -3570
49817, -329, -875, -375, -1540, -6930, -3710
49837, -332, -877, -379, -1960, -8120, -1470
49857, -330, -865, -372, -6860, -6860, 1890
49877, -327, -853, -366, -8540, -2800, 490
49897, -327, -854, -367, -6440, -2240, -420
49917, -324, -851, -368, -1750, -5390, 490
49937, -326, -858, -369, 2870, -4830, -2170
49957, -330, -869, -375, 1190, -560, -3430
49977, -333, -878, -378, -2870, 3780, -2940
49997, -335, -884, -379, -2240, 5880, -4060
50017, -334, -884, -381, 2030, 3430, -3500
50037, -331, -878, -378, 5740, -980, -770
50057, -329, -864, -371, 5180, 140, -350
50077, -328, -857, -369, -140, 5880, -980
50097, -325, -851, -366, -2310, 5880, 1400
50117, -324, -851, -366, 2730, 2450, 1610
50137, -327, -861, -370, 7350, 2870, -1330
50157, -330, -871, -376, 7490, 5810, -3290
50177, -332, -877, -376, 7070, 8120, -4270
50197, -334, -877, -374, 5880, 10290, -4970
50217, -332, -875, -376, 3710, 9730, -2590
50237, -328, -864, -372, 4130, 4550, 2100
50257, -329, -859, -368, 6160, 1890, 3010
50277, -327, -860, -370, 5950, 3780, 1400
50297, -327, -860, -370, 5460, 5600, 210
50317, -329, -862, -367, 5320, 8330, -2310
50337, -331, -867, -371, 3570, 10640, -3430
50357, -331, -875, -375, 3920, 6860, -560
50377, -332, -878, -376, 6790, 1120, 2100
50397, -332, -875, -374, 6230, 2240, 840
50417, -329, -871, -372, 3010, 6230, -910
50437, -330, -862, -367, 630, 6650, -210
50457, -328, -856, -366, 210, 1050, 3150
50477, -327, -860, -372, 2660, -4900, 5880
50497, -327, -861, -372, 2520, -2380, 2870
50517, -331, -867, -371, -1680, 6230, -2940
50537, -332, -872, -372, -3010, 7280, -3850
50557, -331, -870, -371, -630, 1190, -1120
50577, -332, -870, -372, -1120, -4340, 2800
50597, -329, -867, -374, -2940, -7630, 5740
50617, -326, -859, -369, -4620, -6300, 4620
50637, -329, -858, -370, -7350, -1050, 910
50657, -330, -857, -366, -6580, 280, -1890
50677, -327, -857, -366, -3080, -4200, -1260
50697, -330, -869, -373, -3780, -7910, 1610
50717, -332, -877, -377, -5810, -7490, 1750
50737, -333, -880, -378, -6300, -5320, -560
50757, -333, -883, -378, -7840, -3080, -1960
50777, -331, -868, -369, -8050, -2870, -2660
50797, -327, -857, -367, -6230, -8330, 280
50817, -327, -856, -370, -6440, -13650, 4760
50837, -327, -861, -370, -8190, -12110, 4060
50857, -328, -862, -372, -7910, -6160, -1540
50877, -332, -872, -374, -6790, -1750, -6090
50897, -333, -870, -373, -5110, -1750, -7000
50917, -329, -866, -372, -2870, -6440, -4340
50937, -331, -874, -380, -4060, -12740, 2520
50957, -330, -871, -376, -7280, -11410, 3990
50977, -329, -866, -372, -8190, -3360, -2170
50997, -332, -866, -374, -6230, -350, -5250
51017, -325, -858, -368, -980, -3150, -5390
51037, -325, -856, -366, 2310, -5950, -4550
51057, -330, -870, -376, -1470, -7630, 560
51077, -330, -871, -378, -5320, -3780, 910
51097, -332, -876, -377, -4550, 3150, -4690
51117, -331, -874, -376, 420, 3220, -6580
51137, -327, -864, -371, 6580, -1260, -5390
51157, -327, -861, -371, 5530, -2450, -2450
51177, -329, -862, -369, -1890, -70, 1750
51197, -329, -865, -375, -3990, 1890, 2870
51217, -329, -864, -373, 1470, 4270, -1820
51237, -327, -865, -370, 7700, 6650, -6860
51257, -326, -865, -371, 9870, 5880, -6300
51277, -329, -871, -374, 7140, 4970, -2590
51297, -334, -877, -377, 1610, 6230, 910
51317, -334, -874, -378, 490, 6090, 2870
51337, -327, -862, -372, 5320, 5530, 980
51357, -324, -852, -364, 8960, 7910, -2800
51377, -324, -851, -365, 8190, 8610, -2380
51397, -326, -859, -370, 5460, 6020, 2240
51417, -332, -869, -374, 2660, 6230, 4130
51437, -334, -882, -380, 3290, 8960, 1470
51457, -332, -879, -374, 7490, 10430, -2450
51477, -330, -872, -372, 9590, 10850, -4340
51497, -329, -867, -370, 6510, 8820, -770
51517, -329, -861, -371, 2450, 3640, 5880
51537, -329, -863, -372, -700, 1470, 9100
51557, -328, -859, -368, -1260, 4270, 6090
51577, -326, -854, -365, 3640, 6860, -420
51597, -329, -865, -368, 7350, 6440, -3640
51617, -331, -873, -372, 3780, 5110, -1260
51637, -332, -879, -377, -1190, 3290, 2170
51657, -334, -883, -382, -3640, 70, 5180
51677, -331, -869, -373, -3920, -980, 5040
51697, -327, -857, -366, -1400, 1190, -350
51717, -327, -856, -367, -280, -700, -1190
51737, -327, -857, -368, -2940, -5530, 3220
51757, -329, -864, -371, -5810, -6440, 4130
51777, -331, -874, -375, -7840, -4690, 2380
51797, -331, -872, -373, -7420, -3220, -420
51817, -330, -870, -371, -3920, -2870, -4480
51837, -331, -873, -373, -2240, -5810, -4410
51857, -331, -871, -376, -5320, -10570, 770
51877, -330, -866, -371, -10640, -10920, 3500
51897, -331, -862, -371, -13090, -8400, 1960
51917, -326, -857, -368, -9870, -9380, 0
51937, -327, -856, -367, -3990, -11270, -2870
51957, -328, -863, -370, -3080, -9940, -5180
51977, -331, -873, -375, -7490, -8470, -3640
51997, -333, -878, -377, -10780, -7980, -1820
52017, -332, -874, -375, -9940, -7770, -2380
52037, -328, -866, -372, -5460, -10220, -2800
52057, -325, -861, -370, -1260, -12530, -3010
52077, -327, -861, -370, -3500, -9100, -3710
52097, -330, -860, -372, -9450, -4480, -2800
52117, -329, -865, -375, -9660, -5390, -630
52137, -328, -866, -372, -3850, -7910, -1190
52157, -328, -870, -374, 1610, -6370, -4830
52177, -328, -872, -375, 2240, -3360, -6160
52197, -332, -873, -375, -1330, 3430, -4060
52217, -333, -874, -377, -2800, -70, -630
52237, -329, -867, -375, 2940, -4690, 1400
52257, -326, -859, -371, 4550, -1190, -1120
52277, -325, -853, -366, 2520, 4970, -3500
52297, -327, -859, -372, 1470, 6160, -2170
52317, -330, -868, -373, 2380, 6440, -1610
52337, -331, -872, -372, 4970, 7420, -2940
52357, -329, -875, -379, 7700, 5250, -1190
52377, -330, -871, -376, 7630, 6020, -630
52397, -330, -868, -371, 4830, 10500, -1820
52417, -332, -871, -373, 3360, 9870, 560
52437, -330, -869, -375, 5180, 6790, 2800
52457, -328, -862, -369, 6790, 8120, 840
52477, -327, -859, -369, 7140, 9100, 70
52497, -327, -862, -372, 7420, 7560, 1400
52517, -327, -863, -369, 6020, 9590, 350
52537, -332, -868, -372, 3640, 11270, 70
52557, -331, -875, -375, 4270, 8190, 2100
52577, -330, -866, -371, 6790, 6090, 1610
52597, -329, -867, -372, 6650, 6090, 910
52617, -330, -867, -372, 4200, 5110, 2590
52637, -330, -863, -371, 1820, 6440, 1960
52657, -332, -867, -370, -770, 7770, 1190
52677, -330, -866, -374, 700, 3500, 2730
52697, -327, -865, -370, 4620, -420, 1890
52717, -329, -866, -371, 3360, 770, 70
52737, -330, -868, -373, -1260, 1820, 840
52757, -329, -864, -371, -3780, 980, 1750
52777, -331, -861, -370, -4760, 0, 1540
52797, -330, -866, -373, -3290, -3990, 2520
52817, -329, -865, -373, -70, -7420, 1820
52837, -329, -867, -371, -1680, -4970, -700
52857, -332, -872, -373, -6790, -1960, -980
52877, -330, -868, -372, -7490, -3710, -140
52897, -331, -869, -373, -6440, -6090, 140
52917, -328, -867, -374, -6160, -8610, 1190
52937, -325, -855, -369, -3430, -11130, 770
52957, -330, -869, -373, -5040, -9450, -140
52977, -328, -864, -371, -10080, -5040, -980
52997, -329, -865, -371, -8750, -4130, -3150
53017, -333, -876, -378, -7560, -8260, -350
53037, -329, -866, -370, -6510, -9310, -280
53057, -327, -861, -370, -3290, -9310, -2590
53077, -330, -867, -375, -5810, -10780, 910
53097, -328, -857, -365, -9940, -6020, -210
53117, -329, -864, -373, -9170, -2170, -3990
53137, -332, -875, -380, -5950, -7280, -770
53157, -328, -865, -371, -1960, -8750, -1470
53177, -330, -872, -375, -980, -4480, -5390
53197, -331, -881, -380, -3850, -4410, -2100
53217, -330, -870, -372, -5250, -2940, -1400
53237, -331, -868, -373, -5530, 840, -3640
53257, -330, -867, -375, -4410, -2520, 0
53277, -323, -853, -367, 700, -5950, 770
53297, -330, -860, -371, 2380, -2310, -2730
53317, -330, -865, -374, -420, 770, -2100
53337, -328, -861, -369, -700, 3570, -3150
53357, -332, -868, -373, -980, 6650, -4550
53377, -328, -868, -374, 700, 3220, -1260
53397, -326, -867, -373, 6930, -910, -840
53417, -333, -878, -378, 6650, 2240, -2590
53437, -330, -875, -376, 910, 7280, -1890
53457, -329, -866, -371, 2100, 8680, -3010
53477, -329, -867, -372, 3920, 7140, -2170
53497, -327, -857, -368, 4270, 3990, 1190
53517, -323, -855, -367, 7420, 1890, 1260
53537, -329, -861, -370, 6020, 3990, 910
53557, -329, -864, -369, 1680, 9240, -280
53577, -330, -874, -374, 4410, 10570, -3010
53597, -332, -879, -376, 8470, 7980, -3360
53617, -332, -874, -374, 7980, 7210, -2240
53637, -330, -874, -376, 6090, 6160, -140
53657, -330, -866, -371, 3640, 4200, 3150
53677, -329, -861, -371, 1330, 5390, 3150
53697, -328, -859, -369, 2240, 5460, 1960
53717, -326, -856, -366, 4970, 3500, 1330
53737, -330, -862, -368, 4690, 4830, -490
53757, -330, -870, -374, 2380, 5110, 140
53777, -329, -870, -373, 2870, 2240, 1470
53797, -331, -867, -370, 2590, 1540, 1400
53817, -330, -865, -369, -630, 3570, 770
53837, -328, -864, -371, -1190, 2590, 910
53857, -329, -867, -372, -210, -980, 2170
53877, -329, -869, -374, -490, -2940, 2940
53897, -330, -871, -373, -630, -3290, 2170
53917, -332, -871, -371, -1890, -1120, 0
53937, -332, -868, -370, -4760, 1890, -1820
53957, -331, -866, -373, -2940, -8400, 3850
53977, -329, -866, -375, -3150, -10150, 4410
53997, -329, -864, -370, -5950, -5040, 840
54017, -329, -865, -371, -8260, -2100, -910
54037, -329, -862, -369, -7420, -3010, -1470
54057, -328, -860, -366, -4830, -6300, -1190
54077, -328, -870, -376, -3920, -11480, 2310
54097, -330, -875, -377, -4900, -10780, 1820
54117, -331, -874, -373, -8120, -3570, -2730
54137, -331, -876, -372, -10010, -1400, -3430
54157, -330, -865, -372, -6300, -5810, -2170
