T [ms],AccX [mg],AccY [mg],AccZ [mg],GyroX [mdps],GyroY [mdps],GyroZ [mdps]
1737, 132, -217, 908, 4620, -22260, 28070
1757, 143, -184, 853, -2870, -7910, 57540
1777, 131, -186, 886, -16100, 1050, 68740
1797, 33, -863, 735, -32060, 15400, 81410
1817, 125, -344, 870, -16940, 1960, 64120
1837, 16, -364, 909, 41720, 42910, 70700
1857, 206, -321, 875, 24500, 41090, 14910
1877, 214, -274, 808, 21910, 30940, -31150
1897, 27, -219, 837, 126560, -13160, -34510
1917, 37, -57, 1246, 305900, -64610, -19040
1937, 24, -63, 877, 230440, 28910, -62090
1957, -159, -82, 1021, 38080, 149870, -54880
1977, -65, 22, 882, 31920, 78120, -23730
1997, -130, -15, 958, 46550, 69090, -55790
2017, -200, -30, 1004, 48930, 74690, -53760
2037, -207, -37, 1098, 42700, 61040, -42070
2057, -225, -45, 1130, 37730, 39970, -36470
2077, -240, -83, 1119, 31500, 3710, -32690
2097, -185, -91, 1052, 19040, -12320, -35980
2117, -81, -115, 1082, 10710, 420, -45640
2137, -35, -71, 1151, 10920, 3640, -51940
2157, -37, 31, 1142, 5390, 13160, -58030
2177, -79, -15, 1262, -1190, 11830, -69720
2197, 65, -35, 1141, 8120, -44310, -100590
2217, 208, 86, 1120, -17080, -28490, -114170
2237, 233, 106, 1130, -34020, 50050, -95550
2257, 126, 58, 1213, -32340, 92050, -56420
2277, 98, 26, 1182, -29120, 54600, -16170
2297, 289, 133, 1143, -24710, -27720, -11480
2317, 256, 100, 1055, -23380, -34930, -24640
2337, 168, 36, 1055, -43960, 30030, -18550
2357, 142, 38, 837, -44170, 72940, 1680
2377, 117, 115, 1130, -50820, 38780, 21840
2397, 33, 37, 1040, -23170, -34790, 49140
2417, -201, -192, 717, -39690, 7630, 56980
2437, -231, -99, 726, -57120, 76160, 59500
2457, -263, -113, 824, -48720, 87920, 59080
2477, -406, -227, 845, -39690, 73290, 55020
2497, -1025, -1142, -297, -24640, 26110, 54320
2517, -383, -26, 1140, -490, 54040, 19390
2537, -295, -211, 858, -39200, 70350, 16590
2557, -317, -77, 664, -26250, 23450, 14140
2577, -393, -297, 1100, 48370, -10150, -21070
2597, -123, 153, 833, 30730, 9100, -27790
2617, -588, -238, 625, -28000, 74270, -4130
2637, -649, -286, 445, -21980, 78190, 7490
2657, -797, -618, 495, 2870, 69930, 12670
2677, -189, 238, 1381, 12530, 64260, -4340
2697, -54, 161, 1261, -6510, 68110, -70
2717, -341, -120, 839, -24920, 58800, 14280
2737, -489, -300, 667, -9730, 36680, 21910
2757, -355, -174, 865, -3920, 30940, 13510
2777, -350, -37, 941, -6160, 38430, 10920
2797, -407, -95, 975, -6720, 63840, 10080
2817, -504, 105, 705, -26600, 65240, 20930
2837, -675, -297, 788, -12460, 21420, 30240
2857, -470, -6, 984, 2240, -16100, 25550
2877, -625, -378, 711, 4690, -14910, 9450
2897, -513, -114, 853, -1820, 21980, -1260
2917, -571, -267, 468, -6160, 40670, 4690
2937, -485, -108, 760, -8120, 31080, 19180
2957, -536, -145, 773, 8050, 28000, 20510
2977, -521, -29, 720, 5880, 24220, 20930
2997, -807, -335, 567, 350, 52080, 19600
3017, -924, -434, 520, -6090, 57610, 17850
3037, -1000, -433, 249, 11270, 49840, -840
3057, -697, 0, 802, 32200, 35700, -17920
3077, -751, -122, 662, 51030, 38920, -24570
3097, -805, -188, 505, 24640, 60620, -31150
3117, -765, -181, 474, 11620, 60200, -26390
3137, -790, -189, 559, 24850, 30800, -16030
3157, -765, -183, 615, 30240, 24920, -19180
3177, -749, -164, 617, 37380, 26250, -26390
3197, -748, -132, 525, 43540, 10990, -33600
3217, -713, -98, 583, 56560, -1400, -37310
3237, -665, -7, 915, 82530, -17220, -31080
3257, -582, 39, 937, 81550, 7700, -26600
3277, -624, 23, 791, 41160, 73290, -24290
3297, -632, 4, 673, 27090, 62790, -22330
3317, -556, 26, 668, 35000, 26040, -19040
3337, -503, 102, 1013, 46970, 27790, -10780
3357, -598, 113, 1073, 47180, 67620, 630
3377, -759, 60, 803, 16310, 93240, 5600
3397, -818, 13, 689, 3080, 72310, 9450
3417, -755, 26, 810, 30310, 10150, 0
3437, -786, 122, 970, 53130, -26180, -19460
3457, -807, 146, 918, 28210, 23240, -30730
3477, -671, 232, 715, -5390, 67060, -29260
3497, -943, -45, 668, -18760, 60550, 6580
3517, -969, -22, 596, -6440, -7700, 56140
3537, -968, -57, 614, -3780, 1960, 32760
3557, -1014, -17, 444, -9100, 19600, 17080
3577, -1056, -121, 243, -17640, 58870, -15050
3597, -926, -75, 274, -14980, 90020, -40180
3617, -755, 59, 261, 11130, 64680, -44170
3637, -757, 99, 424, 40110, 13510, -33810
3657, -836, 42, 434, 63210, -18620, -21840
3677, -877, 13, 387, 61810, -15680, -15260
3697, -842, 26, 358, 62580, -4550, -15050
3717, -761, 93, 415, 69790, -5600, -15680
3737, -758, 185, 593, 87360, -10080, -18760
3757, -883, 151, 666, 96530, -3290, -19670
3777, -957, 54, 597, 73640, 31570, -16800
3797, -1017, 37, 396, 55790, 46060, -11620
3817, -833, 30, 204, 54530, 26810, -26040
3837, -921, -282, -226, 80990, -62020, -22960
3857, -707, -261, -546, 218120, -89740, -110600
3877, -1059, -62, -752, 555800, 178080, -341460
3897, -1012, 194, -752, 896910, 779940, -585130
3917, -754, 408, -544, 1079750, 1214850, -692370
3937, -628, 343, -559, 1158080, 1349600, -511280
3957, -916, 103, -724, 1066520, 1347150, -110390
3977, -1206, -190, -788, 821660, 1459500, 247520
3997, -1134, -351, -708, 599690, 1609650, 439320
4017, -1277, -869, -870, 527730, 1536220, 535570
4037, -1335, -1360, -1334, 531230, 1272530, 664860
4057, -1512, -1168, -1211, 662480, 992950, 710920
4077, -1384, -858, -745, 717080, 1108870, 598990
4097, -993, -639, -562, 462280, 1453060, 451150
4117, -798, -484, -344, 234780, 1395100, 442890
4137, -681, -533, -400, 287980, 958650, 619220
4157, -647, -559, -624, 452200, 554120, 717920
4177, -746, -490, -714, 648480, 355110, 635600
4197, -824, -464, -724, 867860, 424200, 386470
4217, -816, -459, -607, 1000580, 613760, 88620
4237, -734, -619, -418, 985250, 798000, -69230
4257, -916, -1112, -584, 827680, 902020, -32130
4277, -1134, -1486, -869, 238210, 699160, 463190
4297, -1004, -1310, -718, 175560, 613550, 462350
4317, -685, -873, -336, 250810, 534940, 329490
4337, -609, -760, -319, 251650, 334180, 396200
4357, -578, -701, -330, 237860, 126700, 514010
4377, -497, -635, -350, 256970, 81410, 469280
4397, -514, -621, -363, 284620, 142660, 346080
4417, -537, -607, -364, 282030, 276710, 174580
4437, -547, -574, -309, 265720, 420560, -11130
4457, -493, -527, -187, 225960, 510720, -131110
4477, -450, -550, -139, 143990, 471240, -100590
4497, -511, -662, -168, 47390, 294210, 57890
4517, -685, -953, -425, -45710, 56210, 246960
4537, -796, -1176, -620, -48160, -107520, 296590
4557, -729, -1080, -561, 55230, -85120, 95340
4577, -642, -880, -346, 138600, 29400, -158900
4597, -552, -780, -263, 95970, 92750, -271390
4617, -529, -726, -228, 4480, 1120, -214340
4637, -554, -711, -282, -77980, -176540, -78050
4657, -616, -759, -375, -135380, -332570, 9310
4677, -598, -728, -394, -157430, -383040, -34230
4697, -587, -696, -365, -134960, -365050, -176680
4717, -585, -690, -353, -118020, -326620, -314650
4737, -610, -735, -349, -145180, -305060, -393330
4757, -680, -871, -420, -250460, -272300, -422310
4777, -849, -1086, -563, -361690, -279510, -405020
4797, -971, -1215, -689, -380310, -369460, -383950
4817, -948, -1159, -680, -294980, -513380, -413140
4837, -783, -938, -529, -254170, -595280, -468790
4857, -730, -822, -527, -396830, -575330, -456750
4877, -768, -813, -607, -602630, -580090, -329070
4897, -773, -820, -642, -668290, -643230, -204610
4917, -707, -794, -608, -620200, -670950, -187950
4937, -647, -732, -512, -552020, -620760, -250880
4957, -647, -737, -492, -507150, -554680, -307720
4977, -698, -785, -502, -479990, -552230, -294910
4997, -766, -856, -565, -443870, -616840, -231490
5017, -794, -906, -620, -397250, -713230, -164010
5037, -750, -882, -611, -342160, -775530, -143990
5057, -663, -778, -526, -309890, -746340, -191870
5077, -595, -666, -438, -313740, -671790, -245490
5097, -568, -591, -397, -336000, -628250, -243180
5117, -566, -574, -407, -355390, -635180, -194040
5137, -538, -562, -412, -345450, -658560, -152390
5157, -479, -530, -378, -314370, -642740, -164360
5177, -430, -495, -332, -293510, -561050, -224630
5197, -400, -467, -277, -285180, -455910, -285810
5217, -388, -460, -253, -277340, -383880, -299950
5237, -406, -493, -269, -263690, -380030, -249060
5257, -430, -560, -318, -244720, -421470, -157570
5277, -448, -644, -368, -220150, -456820, -75250
5297, -453, -700, -387, -190470, -438550, -42070
5317, -452, -722, -373, -159460, -361060, -61460
5337, -463, -741, -355, -134960, -263830, -96320
5357, -471, -776, -363, -115150, -201670, -102830
5377, -496, -839, -405, -92260, -194110, -66780
5397, -515, -883, -435, -68880, -202930, -11550
5417, -525, -891, -432, -35910, -197680, 28560
5437, -523, -895, -438, 14700, -182840, 45850
5457, -508, -893, -446, 70420, -171710, 52150
5477, -502, -893, -441, 112700, -146510, 52010
5497, -528, -928, -449, 115710, -85050, 52220
5517, -585, -1012, -479, 78260, -1820, 64750
5537, -638, -1109, -536, 48510, 49350, 94290
5557, -678, -1198, -593, 78750, 31150, 133350
5577, -695, -1249, -628, 150290, -15890, 165270
5597, -704, -1248, -615, 196350, -16170, 172200
5617, -696, -1212, -587, 181300, 47180, 164500
5637, -673, -1159, -562, 140280, 108570, 170380
5657, -642, -1094, -529, 124040, 125930, 196280
5677, -613, -1025, -498, 132510, 119980, 227290
5697, -604, -993, -487, 147840, 117320, 254660
5717, -629, -1025, -521, 159810, 124880, 278740
5737, -665, -1069, -558, 157850, 154560, 289520
5757, -671, -1058, -543, 150150, 218470, 267890
5777, -646, -993, -491, 145740, 299880, 222040
5797, -612, -928, -447, 142660, 351960, 196490
5817, -605, -893, -442, 137270, 348810, 218470
5837, -591, -857, -431, 127750, 320880, 263830
5857, -593, -846, -466, 119630, 305130, 290430
5877, -539, -723, -400, 125860, 304640, 288190
5897, -473, -590, -318, 177380, 337820, 222740
5917, -425, -513, -282, 238700, 369950, 151550
5937, -404, -466, -256, 269500, 372470, 131810
5957, -395, -449, -248, 275170, 369460, 142660
5977, -422, -471, -256, 264670, 373450, 161280
5997, -443, -511, -277, 249340, 374920, 180460
6017, -448, -534, -272, 274050, 344470, 174930
6037, -492, -634, -331, 287210, 316470, 175210
6057, -523, -714, -365, 300790, 302680, 163450
6077, -559, -810, -395, 309330, 289940, 158480
6097, -655, -1003, -476, 281190, 279720, 179760
6117, -731, -1169, -552, 208390, 283710, 209230
6137, -778, -1234, -588, 144620, 283570, 226870
6157, -686, -1080, -501, 113540, 250040, 244580
6177, -599, -919, -393, 132510, 186690, 256830
6197, -566, -879, -398, 124040, 123410, 292950
6217, -613, -945, -451, 83930, 112350, 312340
6237, -608, -942, -444, 61880, 149380, 277480
6257, -597, -945, -437, 57050, 182350, 230510
6277, -646, -1031, -483, 47740, 196910, 204680
6297, -753, -1218, -573, -2030, 243600, 179970
6317, -789, -1305, -581, -36820, 272440, 143710
6337, -737, -1235, -536, -22960, 210350, 152600
6357, -706, -1143, -521, -36540, 110740, 220080
6377, -669, -1059, -514, -82530, 75740, 253190
6397, -626, -971, -458, -97860, 113120, 198590
6417, -546, -842, -364, -62510, 150430, 105280
6437, -484, -735, -296, -19040, 139090, 59990
6457, -461, -691, -283, -22610, 101500, 76230
6477, -473, -697, -302, -63490, 79730, 108080
6497, -491, -726, -322, -101780, 80780, 113120
6517, -510, -757, -330, -113750, 91770, 84210
6537, -505, -744, -310, -93940, 86940, 42490
6557, -488, -723, -301, -60130, 53690, 14140
6577, -477, -711, -303, -43120, 12180, 5250
6597, -465, -693, -297, -46620, -7070, -5670
6617, -462, -675, -280, -60620, -7630, -23240
6637, -453, -648, -264, -74270, -18620, -31920
6657, -439, -619, -257, -80920, -56210, -21700
6677, -430, -598, -258, -82320, -106400, -2380
6697, -424, -582, -265, -84000, -140560, 3570
6717, -417, -564, -260, -83930, -145040, -20230
6737, -413, -546, -245, -78400, -130410, -68110
6757, -414, -540, -238, -66290, -119980, -118720
6777, -425, -555, -245, -49070, -130410, -154210
6797, -447, -600, -268, -39550, -150500, -173600
6817, -488, -677, -312, -48440, -162610, -186410
6837, -553, -784, -360, -71750, -159320, -200830
6857, -620, -895, -411, -95970, -148190, -224420
6877, -681, -1000, -464, -104930, -152950, -252770
6897, -709, -1059, -495, -97860, -187950, -272720
6917, -720, -1084, -508, -104230, -228410, -279300
6937, -719, -1071, -511, -151760, -244720, -278950
6957, -709, -1044, -506, -202790, -249690, -280280
6977, -689, -1019, -496, -224490, -257670, -290920
6997, -685, -1032, -493, -232120, -260610, -308070
7017, -710, -1101, -534, -257740, -249550, -312410
7037, -753, -1189, -589, -306180, -234990, -296450
7057, -780, -1253, -626, -339710, -226240, -273140
7077, -796, -1292, -642, -340200, -232680, -255780
7097, -781, -1283, -643, -329910, -246680, -234990
7117, -729, -1216, -613, -324310, -265790, -200550
7137, -661, -1079, -550, -329070, -276500, -159390
7157, -600, -962, -489, -333550, -270620, -121870
7177, -565, -895, -454, -327460, -262640, -84280
7197, -547, -870, -445, -307860, -261170, -45850
7217, -541, -873, -443, -276710, -253960, -20790
7237, -538, -883, -433, -243530, -228620, -15960
7257, -534, -880, -421, -214480, -190610, -22680
7277, -524, -851, -395, -186550, -162820, -22330
7297, -505, -829, -393, -163450, -153300, -7980
7317, -482, -786, -370, -140280, -155890, 15820
7337, -459, -745, -344, -117670, -136710, 24570
7357, -443, -705, -321, -99820, -101850, 20300
7377, -420, -659, -296, -72870, -76370, 15540
7397, -389, -609, -273, -35000, -65800, 12880
7417, -376, -585, -271, -1400, -54880, 12320
7437, -369, -565, -265, 14910, -31920, 16100
7457, -382, -572, -265, 22680, 12600, 8190
7477, -400, -599, -281, 29680, 64470, -7490
7497, -433, -643, -301, 52430, 101010, -23590
7517, -474, -710, -347, 86940, 122850, -39480
7537, -503, -759, -360, 124180, 137340, -60200
7557, -556, -869, -417, 170310, 149030, -85050
7577, -634, -1042, -490, 184730, 160510, -87920
7597, -710, -1177, -552, 169890, 171850, -70490
7617, -757, -1271, -616, 150430, 171780, -47740
7637, -750, -1259, -614, 147630, 142310, -27160
7657, -729, -1220, -596, 178850, 94500, -22890
7677, -691, -1141, -546, 210840, 63700, -34930
7697, -622, -1016, -471, 210000, 60760, -49910
7717, -581, -949, -450, 208740, 43260, -53830
7737, -582, -952, -463, 207340, 7630, -36820
7757, -637, -1042, -506, 198940, -11480, -26670
7777, -719, -1188, -564, 169260, 47880, -84070
7797, -748, -1266, -584, 166810, 45780, -104090
7817, -754, -1287, -596, 161560, -8330, -81200
7837, -726, -1237, -596, 144480, -68670, -46200
7857, -671, -1127, -538, 147840, -100030, -45360
7877, -605, -1012, -478, 148540, -100380, -64750
7897, -551, -906, -417, 139370, -95690, -74550
7917, -505, -821, -376, 119840, -93170, -66430
7937, -482, -772, -358, 97090, -85190, -55650
7957, -466, -741, -345, 93030, -73430, -54670
7977, -453, -719, -333, 106610, -62300, -61670
7997, -432, -689, -308, 116760, -47950, -64470
8017, -413, -663, -292, 112140, -31710, -52500
8037, -412, -666, -294, 89040, -14770, -22750
8057, -424, -677, -306, 62650, 7700, 7560
8077, -424, -666, -304, 58800, 31080, 18690
8097, -402, -624, -283, 83440, 48440, 13510
8117, -373, -578, -253, 109130, 62510, 12390
8137, -355, -546, -239, 112560, 80570, 29820
8157, -355, -534, -235, 98910, 102830, 62440
8177, -363, -536, -244, 83160, 129010, 94010
8197, -374, -540, -254, 76020, 162190, 108920
8217, -388, -551, -259, 79170, 203350, 103530
8237, -407, -570, -268, 84000, 249760, 87780
8257, -440, -610, -284, 82250, 296520, 75110
8277, -483, -681, -313, 72660, 337820, 69930
8297, -546, -780, -358, 63490, 366240, 67410
8317, -609, -894, -414, 64750, 379190, 60060
8337, -667, -1009, -471, 76160, 381640, 44800
8357, -729, -1123, -517, 83720, 383670, 24640
8377, -768, -1198, -547, 76930, 386330, 2800
8397, -776, -1216, -549, 69090, 374150, -16450
8417, -750, -1175, -526, 76930, 332010, -26880
8437, -725, -1136, -505, 90230, 277690, -36540
8457, -738, -1155, -514, 84980, 248780, -59290
8477, -768, -1210, -539, 70420, 235130, -95760
8497, -793, -1257, -553, 59710, 218610, -135450
8517, -795, -1276, -552, 50190, 191940, -168910
8537, -793, -1278, -546, 35490, 152460, -190750
8557, -792, -1294, -562, 14140, 96670, -193900
8577, -805, -1322, -589, -8330, 28000, -182560
8597, -801, -1321, -598, -38360, -17220, -184240
8617, -774, -1256, -559, -74270, -23800, -212310
8637, -728, -1164, -510, -103320, -25970, -241500
8657, -675, -1068, -468, -120820, -60900, -244300
8677, -630, -988, -442, -133980, -116340, -222600
8697, -586, -911, -411, -154910, -158340, -200480
8717, -550, -839, -384, -179690, -176890, -185500
8737, -515, -776, -356, -201390, -183190, -173040
8757, -487, -723, -333, -218330, -184870, -160650
8777, -470, -703, -340, -229040, -184800, -148400
8797, -438, -624, -276, -228830, -182840, -138320
8817, -443, -602, -266, -225890, -176260, -130200
8837, -433, -578, -273, -209160, -210420, -104230
8857, -393, -532, -264, -148050, -282730, -81200
8877, -344, -475, -235, -105070, -312970, -79450
8897, -335, -455, -216, -118860, -276920, -85190
8917, -339, -444, -202, -146720, -227920, -75530
8937, -381, -500, -237, -159390, -203560, -55650
8957, -421, -585, -299, -150990, -211400, -35770
8977, -445, -633, -327, -102410, -220640, -55230
8997, -458, -654, -321, -34090, -189210, -130830
9017, -465, -676, -305, 20020, -137060, -213710
9037, -522, -797, -359, 52360, -117180, -243740
9057, -601, -990, -470, 57890, -138180, -219310
9077, -725, -1240, -589, 54250, -171570, -181020
9097, -849, -1441, -694, 11760, -153090, -160230
9117, -868, -1448, -724, -43680, -111020, -164990
9137, -806, -1327, -677, -17990, -139440, -176120
9157, -719, -1175, -580, 51660, -188790, -208040
9177, -648, -1045, -477, 79520, -177870, -262290
9197, -620, -986, -453, 35560, -136430, -281470
9217, -624, -1003, -488, -19390, -144620, -243740
9237, -670, -1105, -553, -31990, -192360, -194880
9257, -750, -1243, -603, -50540, -172410, -200340
9277, -806, -1334, -611, -83090, -70980, -268100
9297, -786, -1324, -607, -89250, -3360, -324520
9317, -700, -1188, -554, -59360, -54320, -306180
9337, -627, -1060, -498, -36190, -146930, -244300
9357, -580, -968, -453, -67200, -164920, -202580
9377, -540, -890, -408, -113470, -122780, -189770
9397, -507, -842, -389, -119560, -87710, -186900
9417, -481, -811, -372, -107450, -66990, -180110
9437, -478, -810, -367, -96530, -36610, -173460
9457, -487, -822, -364, -90090, 5390, -166530
9477, -482, -814, -352, -77210, 39900, -150150
9497, -459, -786, -343, -50120, 43330, -118440
9517, -446, -772, -349, -21350, 21350, -8540
9537, -440, -746, -353, -11200, 24080, 32410
9557, -429, -703, -329, -9380, 79730, 38360
9577, -407, -645, -292, 9940, 128800, 31150
9597, -375, -579, -257, 52430, 140280, 40390
9617, -340, -519, -230, 100590, 121240, 74690
9637, -317, -475, -217, 132580, 105210, 123620
9657, -307, -443, -211, 146090, 110110, 173040
9677, -318, -441, -227, 147210, 140770, 209650
9697, -347, -466, -250, 142870, 195790, 221550
9717, -385, -512, -277, 141960, 264670, 206500
9737, -419, -554, -293, 154770, 327320, 180250
9757, -446, -612, -314, 176260, 365750, 169470
9777, -498, -702, -355, 184520, 383950, 190820
9797, -596, -865, -442, 161630, 403550, 233450
9817, -715, -1066, -556, 120750, 432390, 268380
9837, -810, -1231, -648, 99470, 458430, 274400
9857, -841, -1279, -665, 99190, 481530, 253050
9877, -795, -1189, -606, 101850, 497490, 222250
9897, -724, -1059, -526, 111650, 488250, 205520
9917, -668, -963, -480, 126560, 457240, 205240
9937, -665, -940, -478, 126770, 439950, 201950
9957, -705, -988, -511, 106050, 466900, 169680
9977, -756, -1052, -532, 100380, 512540, 98280
9997, -763, -1089, -530, 141120, 525280, 16660
10017, -756, -1133, -528, 199500, 479780, -28910
10037, -778, -1214, -553, 210490, 418250, -24150
10057, -826, -1308, -610, 160440, 373240, 1050
10077, -835, -1305, -602, 112350, 339920, 1820
10097, -760, -1191, -530, 110600, 304850, -35700
10117, -671, -1045, -463, 154350, 213780, -59780
10137, -595, -914, -385, 182910, 125580, -58450
10157, -539, -830, -357, 157710, 93520, -70000
10177, -517, -784, -327, 118440, 82670, -75040
10197, -506, -770, -319, 81690, 78680, -80710
10217, -507, -761, -309, 46200, 76300, -86380
10237, -484, -727, -283, 37100, 50680, -89250
10257, -486, -740, -303, 30240, 6440, -76860
10277, -473, -719, -299, 10430, -39690, -52360
10297, -463, -699, -296, -1820, -70000, -41230
10317, -441, -664, -278, -12740, -80850, -46060
10337, -408, -607, -243, -23520, -80360, -58450
10357, -400, -590, -237, -41650, -85050, -53550
10377, -394, -567, -230, -68950, -100660, -25760
10397, -399, -569, -236, -88900, -121520, 3920
10417, -407, -585, -254, -99330, -143920, 25970
10437, -422, -622, -273, -97930, -159110, 32620
10457, -455, -688, -306, -92890, -161420, 25410
10477, -496, -775, -345, -87290, -158830, 15540
10497, -561, -907, -408, -82810, -158620, 10990
10517, -640, -1062, -487, -89600, -161980, 16660
10537, -720, -1205, -559, -98350, -171990, 27650
10557, -770, -1297, -618, -95620, -194670, 37520
10577, -774, -1300, -624, -74830, -240380, 46550
10597, -727, -1221, -593, -49140, -285670, 48230
10617, -681, -1122, -544, -34720, -313110, 44380
10637, -633, -1026, -499, -30940, -320320, 34160
10657, -632, -1018, -503, -28980, -324170, 22960
10677, -662, -1079, -538, -29890, -328510, 16030
10697, -716, -1179, -593, -23870, -330470, 2450
10717, -748, -1238, -619, -14280, -317870, -28350
10737, -737, -1210, -592, 1260, -302400, -71120
10757, -695, -1124, -550, 14280, -304500, -100030
10777, -651, -1035, -513, 13510, -328860, -99960
10797, -620, -967, -488, 5600, -354550, -88900
10817, -580, -892, -454, -840, -360500, -91490
10837, -537, -820, -411, -70, -345520, -113890
10857, -502, -767, -373, -1820, -318780, -140700
10877, -492, -757, -368, -16100, -288610, -155400
10897, -489, -760, -365, -36190, -260960, -155820
10917, -489, -767, -366, -47740, -236810, -152530
10937, -478, -755, -356, -46900, -217210, -149310
10957, -460, -731, -340, -37450, -201880, -145110
10977, -435, -699, -322, -29890, -190750, -132370
10997, -413, -667, -307, -30170, -179060, -109410
11017, -391, -630, -288, -35840, -159180, -84420
11037, -368, -591, -266, -40320, -128380, -65310
11057, -350, -559, -250, -39620, -93520, -49210
11077, -335, -534, -236, -32340, -62860, -29890
11097, -330, -528, -233, -20300, -37030, -5950
11117, -338, -541, -241, -8400, -12390, 21910
11137, -359, -580, -264, 350, 17430, 49070
11157, -386, -625, -284, 6160, 55440, 71190
11177, -422, -686, -311, 12670, 100240, 86310
11197, -475, -772, -352, 16030, 144690, 101570
11217, -546, -894, -418, 7910, 184170, 125300
11237, -615, -1015, -485, -7770, 218470, 152040
11257, -654, -1081, -521, -12390, 245000, 168560
11277, -655, -1082, -513, 27440, 272300, 171150
11297, -650, -1059, -506, 28700, 285180, 183190
11317, -661, -1053, -514, 7420, 308840, 197190
11337, -673, -1059, -522, -6720, 342020, 189910
11357, -688, -1070, -522, 3080, 373800, 161000
11377, -713, -1114, -534, 19110, 397740, 127750
11397, -756, -1195, -569, 22960, 414120, 103320
11417, -805, -1286, -611, 18480, 418180, 86800
11437, -837, -1357, -648, 22680, 405790, 70560
11457, -844, -1374, -653, 33810, 386190, 50680
11477, -814, -1318, -614, 38080, 372680, 25550
11497, -767, -1226, -555, 40600, 352450, 3570
11517, -708, -1132, -511, 52850, 310730, -6930
11537, -665, -1059, -477, 64540, 267890, -14140
11557, -638, -1000, -444, 61460, 248150, -29820
11577, -623, -964, -415, 43050, 257250, -60340
11597, -578, -899, -369, 53200, 222460, -72800
11617, -564, -901, -386, 75530, 142800, -47040
11637, -562, -899, -400, 48510, 104580, -28490
11657, -555, -858, -364, 5250, 129990, -49770
11677, -520, -788, -316, -4340, 136010, -78120
11697, -466, -706, -274, 18480, 78960, -74830
11717, -420, -646, -261, 40530, -3920, -40600
11737, -400, -596, -246, 31080, -48090, -8680
11757, -381, -558, -229, -5390, -37380, -350
11777, -371, -526, -208, -39550, -15260, -4270
11797, -360, -502, -197, -53830, -14210, -3430
11817, -361, -502, -197, -53970, -36470, 5810
11837, -371, -526, -216, -47390, -68530, 18830
11857, -398, -576, -248, -37100, -95200, 24850
11877, -431, -639, -277, -27860, -103390, 14840
11897, -448, -690, -289, -21770, -98350, -4970
11917, -505, -803, -345, -28280, -104300, -3640
11937, -599, -951, -433, -46130, -124810, 24150
11957, -692, -1161, -548, -60130, -148120, 49560
11977, -748, -1268, -600, -47810, -179690, 58310
11997, -748, -1276, -594, -28630, -189770, 37520
12017, -728, -1217, -562, -27370, -199500, 21700
12037, -695, -1153, -556, -21980, -248290, 37940
12057, -677, -1116, -551, 1540, -308490, 54950
12077, -652, -1075, -526, 15190, -319480, 38500
12097, -655, -1083, -534, 14910, -307230, 9450
12117, -675, -1111, -545, 13650, -306180, -1190
12137, -720, -1184, -588, 1820, -295610, -15610
12157, -768, -1272, -636, -2800, -287770, -41300
12177, -771, -1266, -628, 23240, -297780, -75390
12197, -729, -1187, -587, 48580, -313180, -106190
12217, -662, -1063, -516, 50680, -333130, -119560
12237, -649, -1024, -512, 29400, -350140, -111580
12257, -614, -956, -491, -18550, -347060, -98910
12277, -571, -872, -441, -13930, -342160, -117950
12297, -527, -802, -402, 630, -319130, -156590
12317, -501, -760, -372, -5810, -286720, -187040
12337, -475, -727, -349, -13650, -263340, -195020
12357, -473, -731, -353, -28420, -245840, -184730
12377, -460, -719, -342, -49490, -224070, -166740
12397, -443, -703, -329, -53550, -200900, -156380
12417, -435, -697, -326, -49000, -185640, -140210
12437, -423, -682, -321, -50260, -171080, -114380
12457, -400, -644, -299, -48930, -149100, -94500
12477, -374, -606, -275, -40250, -120960, -82600
12497, -353, -571, -257, -34860, -88970, -67340
12517, -332, -532, -236, -28000, -57470, -45920
12537, -318, -511, -228, -13790, -31640, -19810
12557, -313, -502, -223, -2450, -9870, 15260
12577, -322, -512, -231, 3150, 18130, 52010
12597, -341, -539, -249, 8680, 52220, 84000
12617, -372, -588, -275, 19180, 88410, 108570
12637, -422, -671, -320, 28350, 131320, 127190
12657, -487, -779, -373, 28490, 185360, 138180
12677, -562, -912, -436, 26320, 241080, 143430
12697, -652, -1067, -511, 21560, 285670, 154000
12717, -727, -1202, -584, 11200, 314720, 172130
12737, -753, -1249, -611, 9800, 322910, 190330
12757, -725, -1185, -578, 20930, 320390, 201530
12777, -694, -1103, -540, 25550, 326830, 205730
12797, -684, -1058, -524, 16940, 344260, 206080
12817, -683, -1050, -514, 6650, 373170, 190190
12837, -713, -1099, -533, 18690, 400750, 155820
12857, -768, -1190, -567, 39480, 421610, 118720
12877, -830, -1318, -632, 44940, 445200, 82950
12897, -860, -1389, -657, 33040, 455700, 58940
12917, -872, -1419, -666, 37240, 438200, 40810
12937, -831, -1350, -626, 48510, 404110, 27160
12957, -774, -1242, -568, 53340, 364630, 15050
12977, -715, -1131, -508, 56000, 329070, -3220
12997, -648, -1025, -459, 58310, 290710, -21560
13017, -631, -975, -419, 77490, 244300, -40880
13037, -599, -938, -406, 58380, 208390, -81970
13057, -599, -938, -383, 27300, 203910, -96110
13077, -599, -956, -406, 7280, 162330, -85260
13097, -586, -929, -395, 30030, 86170, -66150
13117, -550, -878, -382, 33110, 43540, -65240
13137, -511, -798, -328, 7770, 42140, -78190
13157, -472, -721, -287, -22260, 38010, -77840
13177, -448, -663, -262, -40390, 3710, -57470
13197, -414, -603, -246, -36400, -45780, -37730
13217, -382, -548, -225, -29960, -79940, -30100
13237, -354, -497, -201, -35980, -89880, -30100
13257, -334, -456, -179, -50750, -91210, -25060
13277, -330, -441, -171, -68740, -99190, -8960
13297, -342, -458, -187, -84770, -117390, 14700
13317, -359, -494, -215, -90510, -140490, 33110
13337, -385, -551, -249, -82110, -154910, 34160
13357, -422, -621, -279, -67970, -150220, 13720
13377, -475, -716, -313, -53900, -138040, -15890
13397, -547, -863, -377, -39130, -149100, -28420
13417, -654, -1084, -498, -26600, -192010, -12180
13437, -774, -1324, -636, -24010, -233870, 10780
13457, -852, -1465, -712, -31430, -245770, 9240
13477, -818, -1389, -668, -32200, -249760, -12880
13497, -741, -1222, -591, -8050, -296030, -18620
13517, -672, -1084, -544, 16870, -362880, -3150
13537, -632, -1005, -511, 24570, -393750, -5250
13557, -633, -1000, -511, 18340, -374430, -37870
13577, -669, -1061, -538, 16520, -343630, -83580
13597, -721, -1161, -582, 22610, -319970, -128520
13617, -790, -1284, -633, 14910, -302260, -164850
13637, -845, -1380, -695, -5950, -299180, -184730
13657, -846, -1362, -700, -12040, -327320, -192150
13677, -752, -1183, -608, 5600, -366870, -205590
13697, -643, -977, -501, 11060, -389060, -224630
13717, -572, -845, -438, -18900, -386400, -231210
13737, -527, -766, -399, -59570, -367010, -230860
13757, -499, -725, -373, -92960, -331240, -236110
13777, -485, -710, -361, -115220, -286650, -247520
13797, -480, -715, -349, -122920, -247800, -255710
13817, -481, -741, -357, -120540, -224560, -250250
13837, -492, -777, -374, -117740, -211050, -231280
13857, -492, -794, -379, -116760, -195790, -209160
13877, -475, -778, -361, -115430, -175210, -187740
13897, -458, -751, -347, -114100, -158130, -158480
13917, -435, -716, -335, -112000, -147350, -120120
13937, -412, -678, -316, -103040, -136150, -84770
13957, -381, -623, -287, -84700, -117670, -60550
13977, -351, -569, -260, -59290, -94710, -42490
13997, -325, -523, -238, -30170, -74270, -21350
14017, -308, -490, -225, -3360, -56280, 5810
14037, -296, -472, -222, 17150, -35210, 36890
14057, -302, -477, -227, 32690, -6510, 66010
14077, -320, -502, -240, 47600, 28280, 92190
14097, -350, -550, -262, 65030, 66220, 112140
14117, -398, -633, -302, 82320, 106960, 127330
14137, -477, -784, -371, 94920, 145320, 144130
14157, -594, -1002, -480, 100590, 173670, 171080
14177, -750, -1284, -631, 91630, 195090, 209230
14197, -851, -1484, -741, 72730, 217840, 240170
14217, -809, -1407, -688, 68950, 235900, 248570
14237, -694, -1181, -561, 86730, 242060, 248500
14257, -627, -1019, -494, 89040, 232540, 277340
14277, -609, -957, -484, 60690, 231350, 325360
14297, -637, -989, -515, 38290, 254310, 350140
14317, -703, -1099, -584, 39620, 300440, 337400
14337, -796, -1249, -649, 49910, 374080, 288050
14357, -899, -1438, -722, 50960, 459550, 226590
14377, -937, -1525, -759, 39200, 508760, 192920
14397, -913, -1479, -739, 34090, 492310, 199080
14417, -848, -1339, -670, 36820, 444360, 218680
14437, -771, -1188, -587, 31850, 427350, 207130
14457, -727, -1080, -515, 29540, 436170, 163310
14477, -654, -977, -464, 41090, 437990, 111020
14497, -597, -892, -417, 81690, 401800, 71680
14517, -590, -884, -422, 146860, 337890, 57750
14537, -604, -897, -418, 154280, 321230, 46970
14557, -618, -912, -407, 109550, 367920, 12880
14577, -583, -856, -355, 64330, 399490, -12040
14597, -538, -804, -333, 69370, 353990, -10220
14617, -486, -732, -309, 105980, 244370, 23660
14637, -460, -681, -292, 130200, 147070, 55230
14657, -418, -603, -252, 119420, 113680, 60900
14677, -384, -538, -215, 99960, 115010, 48930
14697, -348, -475, -186, 82600, 118860, 38430
14717, -327, -435, -170, 65660, 108990, 41930
14737, -316, -417, -161, 51170, 94430, 51520
14757, -321, -418, -157, 35910, 84910, 58030
14777, -331, -440, -162, 10220, 60270, 69160
14797, -346, -484, -181, 6020, 29330, 86800
14817, -376, -553, -228, -4690, 5250, 108290
14837, -434, -663, -287, -30870, 10430, 120750
14857, -531, -846, -375, -70140, 43960, 117390
14877, -660, -1095, -498, -95550, 70980, 101850
14897, -770, -1332, -607, -72310, 58660, 82810
14917, -814, -1441, -628, -37380, 20020, 75740
14937, -804, -1401, -618, -66850, -27650, 110320
14957, -763, -1287, -591, -121520, -92610, 175350
14977, -696, -1176, -559, -117670, -155190, 208810
14997, -626, -1054, -491, -78260, -168000, 184310
15017, -578, -976, -443, -69580, -132650, 145740
15037, -602, -1002, -449, -87920, -103530, 133910
15057, -653, -1106, -508, -110530, -91910, 140630
15077, -761, -1304, -617, -113680, -100450, 147070
15097, -826, -1443, -675, -94990, -118790, 142450
15117, -842, -1479, -697, -76370, -135800, 127120
15137, -762, -1311, -605, -54040, -167930, 119490
15157, -660, -1109, -503, -50330, -195160, 122990
15177, -600, -968, -436, -61600, -212590, 130130
15197, -558, -883, -402, -72800, -229040, 143570
15217, -549, -860, -401, -71190, -241360, 145740
15237, -524, -828, -391, -53970, -238350, 123620
15257, -512, -808, -370, -33250, -210070, 77560
15277, -499, -790, -352, -31290, -166180, 29820
15297, -506, -791, -338, -35070, -137410, 1470
15317, -503, -787, -339, -38710, -143290, 3850
15337, -502, -778, -343, -36750, -168420, 19180
15357, -480, -741, -331, -35000, -185010, 27230
15377, -451, -685, -302, -32340, -182210, 19460
15397, -416, -622, -273, -33740, -166810, 4830
15417, -379, -557, -240, -35560, -149800, -7490
15437, -356, -511, -221, -38150, -134260, -13860
15457, -336, -476, -205, -46480, -111930, -18410
15477, -326, -459, -195, -56630, -80080, -27930
15497, -325, -457, -191, -64470, -45080, -39900
15517, -334, -472, -194, -68110, -12600, -52500
15537, -357, -511, -209, -70000, 17920, -65240
15557, -391, -577, -241, -72170, 47670, -79870
15577, -445, -679, -286, -74550, 80850, -98700
15597, -523, -835, -358, -83650, 122430, -120400
15617, -635, -1037, -440, -100590, 167860, -141540
15637, -741, -1252, -534, -115080, 194670, -153510
15657, -810, -1394, -606, -116060, 167160, -141680
15677, -791, -1363, -610, -103250, 86380, -103320
15697, -716, -1218, -550, -95270, 12040, -70000
15717, -639, -1074, -472, -113680, 3220, -73990
15737, -601, -994, -424, -139650, 37870, -103950
15757, -604, -999, -426, -157990, 70000, -127680
15777, -648, -1089, -470, -168420, 84210, -135730
15797, -730, -1246, -548, -173740, 87150, -136290
15817, -816, -1428, -645, -178780, 82600, -133910
15837, -874, -1533, -702, -180880, 63140, -125720
15857, -844, -1487, -690, -181300, 36120, -114450
15877, -759, -1315, -585, -187600, 13930, -109900
15897, -662, -1127, -504, -194600, 420, -107030
15917, -607, -1015, -454, -196700, -21350, -93590
15937, -579, -960, -431, -194880, -44310, -72870
15957, -552, -922, -416, -195440, -53620, -56840
15977, -564, -927, -416, -204050, -40740, -53970
15997, -571, -939, -438, -225680, -17150, -50890
16017, -548, -890, -405, -201110, -36260, -40460
16037, -501, -825, -367, -132090, -68460, -44240
16057, -479, -782, -336, -112070, -65660, -52990
16077, -475, -753, -327, -140840, -44520, -38430
16097, -472, -726, -329, -161420, -53760, 2450
16117, -428, -650, -297, -140210, -90580, 34580
16137, -385, -576, -259, -92750, -112980, 28560
16157, -347, -508, -223, -56910, -105280, 3080
16177, -333, -478, -208, -41300, -85890, -12390
16197, -333, -468, -207, -37800, -71190, -8540
16217, -332, -465, -208, -26880, -71120, 2800
16237, -346, -483, -221, -3920, -74550, 3570
16257, -360, -515, -236, 17290, -68320, -9380
16277, -389, -569, -266, 43400, -57680, -31010
16297, -438, -661, -309, 76160, -48300, -53480
16317, -520, -795, -378, 100380, -31850, -76160
16337, -596, -977, -453, 114660, -11900, -98700
16357, -688, -1170, -530, 124670, -3220, -113400
16377, -777, -1348, -627, 120260, -8400, -109760
16397, -802, -1383, -655, 95760, -32340, -84700
16417, -749, -1271, -613, 84630, -81270, -56280
16437, -678, -1133, -555, 109130, -142730, -46900
16457, -622, -1021, -499, 133280, -177100, -63280
16477, -608, -988, -478, 133420, -172690, -93800
16497, -622, -1003, -473, 116270, -144690, -128660
16517, -665, -1104, -534, 101080, -125790, -155680
16537, -737, -1210, -578, 79240, -136430, -169540
16557, -813, -1367, -664, 38850, -130410, -172620
16577, -831, -1396, -689, 34230, -155540, -180670
16597, -772, -1280, -626, 57330, -186970, -199850
16617, -681, -1113, -538, 57960, -203070, -217910
16637, -607, -973, -458, 25690, -199220, -218680
16657, -577, -908, -438, -11830, -200830, -200550
16677, -547, -860, -417, -23170, -203350, -192500
16697, -534, -844, -404, -25340, -186200, -202650
16717, -531, -853, -400, -43050, -149030, -213920
16737, -538, -870, -397, -59780, -120050, -211260
16757, -533, -875, -398, -68530, -113050, -190750
16777, -518, -854, -392, -73290, -119560, -160160
16797, -482, -795, -362, -68810, -121310, -135380
16817, -446, -728, -330, -62440, -114310, -114310
16837, -406, -655, -292, -55300, -105700, -90510
16857, -369, -587, -260, -42280, -97720, -66220
16877, -333, -526, -235, -30450, -84980, -42490
16897, -308, -482, -216, -26320, -60340, -18830
16917, -293, -451, -204, -24010, -28490, 4830
16937, -283, -429, -193, -16660, 3290, 27790
16957, -285, -423, -189, -3640, 28630, 52780
16977, -293, -434, -197, 14070, 48440, 77630
16997, -316, -471, -217, 34440, 66850, 98140
17017, -345, -529, -248, 55090, 88270, 112770
17037, -389, -615, -289, 72940, 117530, 122360
17057, -463, -749, -350, 77140, 158760, 133560
17077, -581, -966, -450, 57330, 207550, 154350
17097, -745, -1262, -610, 19040, 246120, 185710
17117, -856, -1482, -729, -5880, 260260, 210000
17137, -813, -1420, -684, 20160, 244160, 212590
17157, -690, -1189, -553, 64960, 213570, 218330
17177, -611, -1007, -475, 64890, 194320, 251160
17197, -587, -930, -462, 28000, 204470, 290500
17217, -601, -935, -483, 5040, 239610, 299390
17237, -653, -1014, -522, 7350, 301420, 264740
17257, -726, -1143, -572, 18200, 379610, 203140
17277, -820, -1320, -633, 24780, 440720, 152740
17297, -901, -1489, -716, 15750, 451710, 147770
17317, -912, -1515, -741, 1540, 410270, 175210
17337, -838, -1372, -670, 6160, 365330, 183540
17357, -751, -1193, -567, 16170, 357210, 150710
17377, -679, -1056, -484, 21070, 365330, 106050
17397, -629, -968, -449, 30800, 353990, 76020
17417, -592, -893, -401, 48720, 325990, 57680
17437, -577, -880, -393, 50890, 318500, 35910
17457, -571, -873, -388, 49350, 306740, 18410
17477, -574, -883, -391, 70770, 273070, 14420
17497, -569, -877, -383, 75110, 249900, 7070
17517, -550, -845, -368, 60830, 243530, -7070
17537, -514, -778, -321, 52010, 229740, -17640
17557, -476, -716, -287, 51590, 198660, -18200
17577, -436, -652, -257, 57470, 140420, 2100
17597, -411, -609, -249, 61810, 79940, 30520
17617, -388, -563, -230, 52220, 45150, 50400
17637, -371, -526, -216, 37380, 40110, 49770
17657, -359, -503, -200, 21770, 46900, 39620
17677, -359, -504, -195, 11410, 50050, 29610
17697, -367, -523, -205, 7840, 37380, 30240
17717, -391, -568, -228, 6160, 14420, 39620
17737, -423, -634, -255, -1050, -4760, 49630
17757, -466, -726, -302, -12390, -20230, 59780
17777, -522, -834, -361, -20230, -42490, 75740
17797, -591, -972, -437, -26110, -64960, 91140
17817, -653, -1099, -496, -36610, -73010, 93870
17837, -699, -1187, -537, -50190, -67200, 81970
17857, -700, -1179, -528, -55230, -77560, 74620
17877, -661, -1107, -504, -42910, -120890, 84210
17897, -625, -1039, -479, -27440, -184380, 108010
17917, -615, -1020, -480, -21140, -230790, 128940
17937, -631, -1055, -503, -28420, -239050, 130480
17957, -659, -1106, -520, -38640, -221760, 111650
17977, -717, -1217, -584, -36050, -204610, 84000
17997, -768, -1309, -627, -32760, -201600, 62790
18017, -801, -1365, -650, -21350, -211960, 42770
18037, -799, -1359, -659, -6650, -239260, 28420
18057, -750, -1250, -605, 5880, -292110, 32200
18077, -672, -1094, -541, 9380, -330960, 33320
18097, -613, -970, -476, -4270, -344960, 26250
18117, -575, -887, -434, -13160, -338940, 4830
18137, -555, -849, -422, -14210, -333130, -19600
18157, -545, -831, -410, -7630, -334110, -41300
18177, -539, -831, -405, -210, -324170, -69720
18197, -537, -829, -393, -9450, -300440, -96740
18217, -533, -823, -386, -25830, -276010, -115220
18237, -532, -817, -385, -45360, -260120, -118300
18257, -514, -786, -375, -62370, -260050, -108500
18277, -481, -730, -348, -62650, -268100, -100030
18297, -438, -659, -310, -59430, -247940, -108850
18317, -396, -589, -272, -60620, -231560, -107660
18337, -360, -532, -241, -67620, -214480, -95760
18357, -337, -497, -227, -82880, -194110, -73640
18377, -321, -475, -217, -98000, -167510, -50120
18397, -310, -465, -210, -107590, -135380, -29050
18417, -311, -469, -207, -112140, -100800, -9450
18437, -324, -496, -221, -111160, -68110, 8890
18457, -345, -538, -240, -102410, -38150, 23030
18477, -374, -601, -267, -89460, -6860, 31360
18497, -415, -691, -310, -80080, 28210, 37870
18517, -492, -833, -375, -78960, 66780, 48440
18537, -578, -995, -451, -84700, 101780, 66430
18557, -670, -1169, -540, -91700, 118020, 92680
18577, -725, -1284, -603, -85540, 111580, 119700
18597, -716, -1273, -598, -63070, 97510, 137760
18617, -665, -1171, -547, -48230, 97300, 151480
18637, -620, -1069, -496, -50820, 111930, 166530
18657, -594, -1013, -479, -57820, 132650, 181510
18677, -607, -1024, -491, -59150, 161140, 186970
18697, -651, -1101, -530, -57610, 206150, 175280
18717, -718, -1214, -580, -60060, 258930, 152180
18737, -784, -1333, -632, -63070, 295680, 135660
18757, -816, -1387, -662, -60760, 295890, 139090
18777, -799, -1359, -651, -47670, 274050, 147420
18797, -762, -1286, -608, -30380, 260470, 141540
18817, -719, -1193, -561, -31920, 270480, 125300
18837, -684, -1116, -515, -39900, 280770, 108430
18857, -652, -1049, -481, -37730, 278460, 92890
18877, -598, -952, -426, -20440, 263550, 73780
18897, -597, -940, -416, -14280, 260750, 54390
18917, -568, -902, -406, -16940, 249200, 47110
18937, -558, -874, -385, 30170, 210140, 39970
18957, -532, -841, -374, 45080, 196420, 29750
18977, -525, -813, -349, 19600, 214130, 13440
18997, -512, -779, -326, -5600, 224350, 10010
19017, -490, -734, -304, -8820, 198730, 15120
19037, -446, -667, -277, 24780, 137340, 22750
19057, -403, -604, -253, 68530, 70140, 30590
19077, -369, -543, -222, 81060, 41720, 33950
19097, -351, -504, -205, 61950, 48300, 37100
19117, -347, -483, -194, 33460, 58730, 46340
19137, -352, -485, -199, 14140, 57680, 57330
19157, -355, -492, -201, 9590, 45640, 61250
19177, -370, -522, -218, 20580, 26880, 57120
19197, -395, -579, -245, 37100, 1890, 54110
19217, -427, -647, -267, 51100, -17220, 47810
19237, -495, -783, -336, 52500, -24570, 40390
19257, -573, -952, -422, 40740, -38780, 48230
19277, -666, -1134, -519, 33740, -58170, 60690
19297, -718, -1233, -555, 22820, -63980, 62160
19317, -730, -1247, -560, 4970, -73080, 62300
19337, -712, -1199, -551, -9590, -117110, 83370
19357, -672, -1122, -531, -2450, -183680, 109200
19377, -639, -1072, -515, 20720, -234150, 112070
19397, -617, -1033, -488, 39690, -245000, 86030
19417, -630, -1060, -498, 42910, -231350, 52990
19437, -685, -1153, -546, 26600, -222180, 40600
19457, -756, -1284, -624, 980, -222600, 42420
19477, -808, -1367, -676, -14210, -230860, 38290
19497, -775, -1304, -640, 5110, -251370, 16310
19517, -695, -1157, -563, 55580, -295330, -9870
19537, -631, -1026, -487, 73080, -331590, -22750
19557, -622, -985, -484, 22190, -314860, -31150
19577, -601, -929, -461, -24570, -299110, -36260
19597, -580, -888, -443, 8050, -327810, -49280
19617, -538, -832, -403, 40110, -335440, -83650
19637, -529, -827, -394, 32060, -310800, -121730
19657, -548, -850, -405, -9450, -276150, -132020
19677, -553, -853, -412, -54390, -245350, -132020
19697, -518, -798, -376, -58660, -242130, -135380
19717, -485, -752, -353, -34580, -249760, -147140
19737, -471, -719, -335, -40530, -245000, -144130
19757, -452, -689, -326, -62090, -238420, -123900
19777, -422, -645, -303, -69300, -238560, -102550
19797, -389, -598, -279, -73780, -223020, -95690
19817, -355, -546, -244, -82810, -191100, -94570
19837, -342, -521, -229, -91000, -160020, -83090
19857, -352, -531, -237, -107100, -136150, -51590
19877, -356, -546, -247, -119070, -120680, -12250
19897, -356, -564, -258, -106960, -111440, 13160
19917, -358, -580, -260, -81550, -95410, 21000
19937, -373, -614, -272, -60130, -63910, 23450
19957, -410, -680, -298, -53340, -23520, 35630
19977, -476, -795, -358, -61600, 13090, 62790
19997, -553, -940, -440, -75180, 40740, 98980
20017, -612, -1066, -500, -79100, 64330, 123270
20037, -657, -1152, -530, -33040, 103950, 126140
20057, -677, -1199, -552, -25550, 108290, 145180
20077, -677, -1187, -556, -26320, 97440, 181580
20097, -650, -1134, -546, -28630, 100030, 207760
20117, -623, -1068, -508, -28210, 133210, 206640
20137, -617, -1044, -494, -31850, 178150, 199360
20157, -646, -1087, -518, -37870, 209580, 202860
20177, -689, -1168, -569, -31780, 225190, 208880
20197, -740, -1250, -610, -20650, 248920, 200760
20217, -764, -1290, -625, -15960, 285320, 178780
20237, -770, -1286, -616, -17990, 309540, 165620
20257, -758, -1254, -602, -22890, 310520, 166670
20277, -727, -1186, -569, -18760, 300300, 165690
20297, -683, -1104, -522, -7070, 296940, 150780
20317, -644, -1025, -478, 4970, 300860, 127470
20337, -616, -967, -448, 15540, 299040, 108150
20357, -597, -925, -427, 25550, 294140, 91210
20377, -549, -844, -377, 36890, 287000, 71960
20397, -572, -863, -383, 22400, 298620, 53550
20417, -519, -796, -355, 24290, 278740, 46340
20437, -504, -758, -330, 89390, 209860, 53130
20457, -473, -721, -327, 108780, 176890, 57260
20477, -469, -696, -300, 75040, 201320, 39760
20497, -452, -655, -275, 48300, 225890, 26740
20517, -435, -614, -245, 44870, 209440, 27650
20537, -409, -588, -234, 63420, 157080, 40530
20557, -392, -573, -241, 91140, 85190, 63070
20577, -386, -565, -239, 101640, 45640, 74550
20597, -386, -569, -240, 85050, 50330, 71960
20617, -397, -576, -235, 60060, 63700, 67900
20637, -402, -590, -239, 42840, 61880, 69580
20657, -418, -626, -260, 34230, 43330, 76440
20677, -450, -688, -292, 32760, 19740, 85400
20697, -492, -770, -334, 30660, 5950, 86450
20717, -542, -875, -374, 26110, -1050, 80850
20737, -587, -972, -419, 25900, -22890, 84000
20757, -637, -1076, -481, 17990, -53620, 100870
20777, -692, -1174, -541, -6790, -76370, 121240
20797, -716, -1218, -565, -26880, -87360, 126630
20817, -699, -1196, -547, -21210, -101640, 112000
20837, -678, -1152, -523, -4340, -128660, 100100
20857, -659, -1110, -513, -4200, -162750, 109760
20877, -640, -1074, -499, -13440, -188720, 122220
20897, -640, -1076, -503, -17220, -202090, 121520
20917, -662, -1117, -527, -19810, -206220, 112910
20937, -704, -1185, -562, -23590, -203560, 97860
20957, -722, -1217, -580, -28210, -203000, 79310
20977, -713, -1195, -567, -18830, -212940, 57260
20997, -685, -1140, -536, -2730, -232330, 37800
21017, -655, -1080, -511, 4970, -262360, 33530
21037, -634, -1030, -498, 280, -292320, 40040
21057, -604, -973, -474, -10290, -305970, 40530
21077, -571, -904, -437, -14140, -297430, 19250
21097, -541, -848, -403, -16940, -272860, -15470
21117, -517, -804, -374, -20090, -254240, -43260
21137, -498, -766, -356, -20160, -252210, -55160
21157, -472, -720, -336, -20300, -258230, -56770
21177, -447, -674, -313, -22470, -258580, -58310
21197, -421, -631, -292, -28980, -246610, -62440
21217, -404, -598, -274, -39830, -228060, -64330
21237, -387, -573, -260, -50400, -209790, -61530
21257, -376, -559, -252, -58170, -190750, -58450
21277, -366, -551, -248, -66430, -165410, -58310
21297, -357, -542, -241, -74620, -133980, -60410
21317, -358, -545, -235, -83090, -100030, -59290
21337, -367, -566, -240, -93520, -70280, -48510
21357, -390, -601, -263, -103600, -49490, -28000
21377, -414, -663, -292, -108710, -34580, -6440
21397, -445, -730, -324, -109060, -16310, 7840
21417, -480, -804, -356, -107660, 10360, 13580
21437, -525, -885, -391, -107660, 44660, 15960
21457, -580, -989, -446, -113540, 78260, 22960
21477, -632, -1089, -498, -122220, 98280, 38360
21497, -658, -1143, -522, -119210, 101990, 55650
21517, -656, -1139, -517, -104720, 100870, 66990
21537, -642, -1103, -502, -97510, 104020, 78890
21557, -634, -1085, -503, -103950, 107940, 99050
21577, -641, -1094, -518, -111160, 115570, 115990
21597, -652, -1111, -517, -105700, 138670, 112420
21617, -670, -1145, -521, -92050, 179480, 86870
21637, -706, -1205, -550, -87710, 217560, 67410
21657, -743, -1273, -597, -97650, 232540, 74900
21677, -765, -1310, -619, -102200, 221970, 92610
21697, -753, -1286, -597, -88200, 213990, 90930
21717, -728, -1229, -559, -68040, 219590, 66780
21737, -692, -1163, -528, -61880, 227010, 48020
21757, -659, -1100, -500, -68810, 221410, 43890
21777, -623, -1022, -453, -66640, 207620, 41580
21797, -570, -930, -399, -45290, 186830, 20650
21817, -590, -945, -413, -65520, 189350, 19250
21837, -560, -907, -409, -61460, 163800, 21980
21857, -537, -853, -375, 3150, 115570, 14280
21877, -492, -791, -348, 21490, 112910, -7350
21897, -476, -743, -310, -9100, 141540, -21630
21917, -463, -710, -289, -38850, 152040, -10430
21937, -457, -683, -278, -47740, 121100, 14560
21957, -434, -648, -273, -16030, 59010, 34230
21977, -401, -596, -256, 27790, 6020, 36470
21997, -371, -552, -235, 46760, -3570, 23730
22017, -356, -518, -215, 42070, 9310, 14280
22037, -357, -510, -206, 27930, 21070, 14420
22057, -361, -518, -212, 17290, 18270, 22190
22077, -371, -537, -224, 20930, -1190, 31360
22097, -393, -582, -252, 30940, -22120, 36260
22117, -426, -647, -282, 38010, -30940, 31990
22137, -478, -745, -323, 43470, -32340, 21700
22157, -525, -847, -369, 53410, -45920, 15680
22177, -585, -977, -435, 67550, -80150, 24080
22197, -651, -1115, -513, 62300, -111650, 44170
22217, -713, -1220, -570, 38010, -115640, 50680
22237, -718, -1220, -568, 20790, -115010, 40600
22257, -686, -1153, -534, 34440, -152740, 37170
22277, -648, -1086, -518, 60620, -217280, 48580
22297, -633, -1051, -506, 70280, -257530, 52290
22317, -630, -1048, -508, 64330, -252770, 31710
22337, -644, -1069, -511, 60550, -235340, -1470
22357, -668, -1116, -533, 57680, -227430, -24570
22377, -715, -1190, -569, 44940, -231700, -32970
22397, -764, -1270, -624, 23590, -240170, -38080
22417, -778, -1280, -638, 27580, -259210, -56140
22437, -728, -1191, -585, 59430, -285460, -90300
22457, -660, -1066, -518, 73220, -306180, -117810
22477, -622, -987, -479, 41860, -314720, -120680
22497, -602, -940, -467, -3080, -315560, -111300
22517, -579, -894, -447, -22680, -313390, -115850
22537, -556, -853, -422, -19460, -300930, -142170
22557, -534, -821, -399, -17990, -278320, -174020
22577, -517, -802, -381, -28840, -254590, -191730
22597, -506, -784, -373, -48930, -238630, -188300
22617, -491, -765, -365, -68530, -230020, -172130
22637, -469, -730, -345, -79520, -224910, -153160
22657, -445, -688, -324, -83510, -219450, -135170
22677, -414, -636, -299, -82950, -213640, -116690
22697, -386, -594, -279, -79730, -204680, -99400
22717, -363, -559, -259, -78750, -186130, -85540
22737, -340, -526, -240, -80500, -156800, -73920
22757, -324, -502, -225, -80850, -124530, -59990
22777, -317, -494, -218, -77910, -98070, -37170
22797, -325, -508, -227, -71260, -80430, -5880
22817, -340, -543, -243, -59920, -65660, 25060
22837, -362, -588, -266, -42560, -46340, 46830
22857, -393, -651, -293, -22400, -20650, 60620
22877, -440, -746, -336, -7490, 9100, 75250
22897, -535, -917, -419, -6300, 40530, 97230
22917, -647, -1124, -531, -19530, 72100, 124530
22937, -730, -1291, -615, -31640, 98840, 143360
22957, -734, -1311, -608, -20230, 113540, 146650
22977, -682, -1210, -556, 7420, 104440, 156170
22997, -626, -1096, -518, 19530, 76160, 195790
23017, -592, -1013, -489, 15050, 58940, 241010
23037, -570, -965, -472, 11620, 81270, 257740
23057, -579, -969, -470, 13230, 133490, 245210
23077, -631, -1049, -510, 7000, 198100, 227780
23097, -713, -1188, -583, -11900, 254310, 222320
23117, -795, -1345, -663, -21980, 288050, 222880
23137, -824, -1406, -689, -9800, 300230, 219240
23157, -808, -1359, -662, 8680, 299670, 214340
23177, -765, -1264, -620, 8120, 300650, 215040
23197, -712, -1144, -559, -9310, 308560, 213570
23217, -653, -1032, -504, -6160, 316610, 195650
23237, -598, -916, -423, 17570, 320180, 168210
23257, -606, -928, -451, 24640, 329280, 146650
23277, -584, -884, -419, 9450, 332360, 141050
23297, -569, -858, -405, 54600, 312620, 117250
23317, -554, -838, -402, 95970, 299250, 89670
23337, -524, -769, -337, 96880, 312270, 59220
23357, -519, -756, -323, 77630, 337890, 37030
23377, -494, -720, -310, 54110, 325640, 46200
23397, -462, -680, -302, 66780, 259000, 74200
23417, -427, -623, -277, 106960, 183680, 90370
23437, -406, -578, -248, 130550, 150500, 83370
23457, -390, -550, -229, 122010, 158900, 68320
23477, -387, -534, -218, 97720, 170310, 62160
23497, -375, -523, -211, 83160, 160930, 67130
23517, -382, -542, -225, 84560, 131390, 74340
23537, -393, -572, -237, 84420, 101640, 84910
23557, -415, -615, -251, 67340, 73290, 87570
23577, -438, -659, -264, 52710, 57750, 98840
23597, -474, -737, -308, 31850, 33880, 121520
23617, -530, -848, -376, 6650, 15400, 142660
23637, -592, -967, -438, -8960, 15680, 141750
23657, -633, -1055, -475, -6300, 22610, 119000
23677, -645, -1089, -475, 4830, 10990, 102340
23697, -652, -1109, -484, -1680, -25410, 119000
23717, -670, -1126, -506, -25760, -73990, 160790
23737, -671, -1131, -523, -45080, -104300, 184100
23757, -655, -1111, -511, -42560, -112630, 172270
23777, -647, -1100, -502, -33950, -110180, 149660
23797, -664, -1126, -514, -40810, -102830, 136570
23817, -692, -1175, -535, -50680, -103600, 130900
23837, -716, -1224, -562, -48230, -116550, 125790
23857, -730, -1246, -569, -39060, -139720, 120820
23877, -722, -1229, -564, -33880, -169050, 124600
23897, -689, -1163, -541, -41230, -190470, 127190
23917, -644, -1067, -492, -46480, -196910, 114940
23937, -605, -988, -446, -42000, -200060, 95130
23957, -580, -936, -420, -35980, -211260, 82110
23977, -566, -906, -414, -32200, -227920, 77210
23997, -558, -891, -414, -31570, -237090, 69580
24017, -550, -875, -402, -34930, -225540, 47390
24037, -540, -852, -385, -40320, -203700, 18270
24057, -526, -823, -367, -44660, -193970, -280
24077, -506, -777, -345, -46760, -200830, -5250
24097, -477, -724, -324, -46270, -212940, -6300
24117, -447, -671, -303, -44870, -219100, -10640
24137, -417, -615, -274, -45640, -213850, -19670
24157, -389, -570, -251, -48790, -202300, -28140
24177, -366, -531, -234, -54810, -187880, -31850
24197, -348, -506, -223, -66920, -164780, -33950
24217, -342, -496, -216, -84490, -129850, -38430
24237, -348, -501, -215, -101360, -90370, -45430
24257, -357, -522, -221, -111090, -55580, -53550
24277, -375, -562, -236, -113120, -26530, -62090
24297, -403, -619, -260, -111160, -1260, -69860
24317, -442, -703, -300, -109550, 20650, -73360
24337, -500, -820, -352, -115990, 44030, -71330
24357, -578, -967, -421, -136290, 74900, -66080
24377, -660, -1120, -495, -159320, 99120, -58030
24397, -708, -1217, -543, -162750, 93100, -44730
24417, -701, -1214, -545, -145040, 62020, -30030
24437, -650, -1124, -502, -127680, 31220, -16730
24457, -608, -1040, -463, -130060, 26600, -7350
24477, -584, -998, -445, -144060, 43330, -5040
24497, -590, -1009, -455, -153370, 64470, -4410
24517, -629, -1081, -491, -162120, 92190, -7000
24537, -692, -1194, -541, -172760, 126140, -14490
24557, -754, -1316, -601, -172480, 145530, -21000
24577, -793, -1398, -641, -157360, 137060, -21770
24597, -782, -1380, -633, -137690, 111930, -15820
24617, -732, -1282, -585, -132230, 93450, -10220
24637, -683, -1180, -537, -144410, 89110, -4830
24657, -633, -1081, -493, -151900, 85470, 350
24677, -606, -1019, -456, -144900, 79450, 490
24697, -560, -938, -407, -132020, 75600, -3430
24717, -583, -962, -429, -124670, 76300, -8750
24737, -564, -940, -429, -138250, 80150, -2730
24757, -530, -874, -380, -96600, 53130, -4200
24777, -492, -813, -350, -48230, 35280, -12880
24797, -477, -777, -335, -62370, 46830, -11970
24817, -466, -730, -307, -96950, 63980, 5600
24837, -466, -709, -309, -113540, 59920, 28350
24857, -428, -643, -275, -94570, 30660, 39760
24877, -388, -589, -259, -36260, -8540, 28420
24897, -354, -528, -226, 11690, -31990, 12740
24917, -344, -507, -212, 30240, -23380, -1960
24937, -346, -501, -207, 18900, -420, -2940
24957, -364, -523, -221, -280, 17080, 7070
24977, -381, -559, -246, -2100, 13930, 20440
24997, -407, -605, -270, 18480, -3010, 23450
25017, -438, -666, -300, 52150, -14350, 9730
25037, -476, -746, -329, 78470, -10780, -14420
25057, -522, -844, -372, 95200, -9240, -30100
25077, -576, -962, -435, 106750, -28140, -23380
25097, -646, -1096, -511, 105980, -56560, -2380
25117, -691, -1178, -554, 93730, -71610, 12250
25137, -703, -1191, -549, 80220, -69300, 8330
25157, -678, -1148, -534, 78260, -74900, -2800
25177, -643, -1078, -512, 89250, -114590, -560
25197, -615, -1021, -493, 113750, -173950, 9380
25217, -604, -998, -487, 127400, -205870, 6790
25237, -609, -1002, -478, 123060, -195090, -19180
25257, -631, -1046, -492, 112700, -170940, -50540
25277, -668, -1111, -523, 95340, -155400, -69440
25297, -719, -1200, -586, 67620, -182070, -71680
25317, -758, -1268, -619, 72730, -203980, -85190
25337, -750, -1248, -609, 88270, -223930, -111720
25357, -697, -1159, -555, 85540, -236110, -131810
25377, -644, -1053, -501, 51730, -240240, -133980
25397, -605, -968, -467, 19110, -243950, -129360
25417, -570, -895, -435, 8820, -249830, -131950
25437, -541, -845, -413, 16380, -251720, -145250
25457, -516, -808, -390, 19320, -241430, -161980
25477, -498, -791, -376, 2660, -215180, -172480
25497, -491, -780, -362, -26670, -185150, -169750
25517, -486, -777, -360, -53200, -163800, -154000
25537, -479, -767, -355, -66360, -155470, -132580
25557, -465, -741, -343, -62090, -154770, -115360
25577, -440, -701, -322, -49350, -153090, -103040
25597, -412, -656, -298, -37310, -146020, -91560
25617, -379, -607, -273, -30450, -131600, -77910
25637, -351, -561, -247, -29960, -110530, -59920
25657, -332, -526, -234, -35980, -85120, -34510
25677, -325, -513, -226, -43750, -59430, -3150
25697, -329, -519, -230, -45780, -35280, 28280
25717, -336, -533, -238, -37800, -11410, 52430
25737, -353, -561, -252, -22470, 14350, 69440
25757, -384, -625, -278, -7350, 41020, 86310
25777, -438, -727, -332, 1540, 67900, 106960
25797, -515, -869, -408, 3570, 99960, 125090
25817, -604, -1034, -483, -910, 142800, 132650
25837, -683, -1184, -552, -12530, 185570, 136920
25857, -717, -1246, -581, -22820, 200830, 154000
25877, -692, -1198, -562, -16380, 178080, 188440
25897, -631, -1084, -519, 5250, 144200, 222180
25917, -585, -983, -474, 24570, 141750, 235130
25937, -571, -936, -457, 22680, 183750, 230440
25957, -603, -962, -478, 2940, 246190, 218540
25977, -664, -1067, -527, -16100, 309120, 201320
25997, -736, -1200, -587, -21000, 355880, 179060
26017, -805, -1333, -642, -11060, 378770, 159110
26037, -860, -1436, -688, -1400, 373870, 154910
26057, -851, -1426, -695, -3010, 349790, 165270
26077, -781, -1283, -623, -1400, 328370, 161490
26097, -692, -1106, -524, 11970, 328580, 127470
26117, -621, -967, -442, 27720, 336700, 86030
26137, -578, -883, -392, 37870, 331800, 63770
26157, -554, -849, -385, 40320, 311150, 61320
26177, -581, -880, -400, 37380, 294490, 58940
26197, -581, -898, -413, 25760, 293370, 44940
26217, -585, -901, -406, 55720, 271670, 19670
26237, -553, -861, -381, 89250, 247310, -1120
26257, -533, -826, -349, 91910, 234080, -17010
26277, -509, -787, -331, 68670, 218680, -8890
26297, -481, -728, -299, 47110, 186550, 11830
26317, -441, -657, -270, 50400, 139580, 29190
26337, -400, -585, -237, 62860, 90300, 41580
26357, -371, -529, -212, 64820, 61180, 46760
26377, -355, -497, -202, 54320, 49140, 50260
26397, -344, -477, -191, 41930, 43960, 49910
26417, -351, -494, -199, 33600, 40810, 44310
26437, -371, -532, -217, 28140, 34300, 38010
26457, -393, -579, -235, 28070, 24290, 32060
26477, -418, -635, -258, 26110, 15470, 29050
26497, -459, -718, -294, 15750, 3640, 38220
26517, -526, -845, -363, -2660, -17850, 64260
26537, -614, -1016, -466, -24920, -43680, 94360
26557, -684, -1161, -532, -36960, -58170, 102760
26577, -697, -1202, -538, -30730, -55720, 78470
26597, -672, -1142, -501, -15260, -74830, 64680
26617, -628, -1055, -477, -14420, -125090, 89110
26637, -618, -1019, -475, -35070, -173600, 126280
26657, -614, -1016, -481, -45360, -201460, 145670
26677, -617, -1032, -481, -37450, -206640, 133140
26697, -636, -1084, -508, -19320, -199710, 103740
26717, -689, -1173, -552, -12110, -197890, 84910
26737, -742, -1267, -595, -26250, -189140, 74130
26757, -774, -1322, -629, -39340, -185850, 62230
26777, -761, -1288, -609, -25900, -215530, 54040
26797, -711, -1193, -576, -910, -264670, 53480
26817, -656, -1072, -520, 10430, -309050, 56910
26837, -596, -960, -464, 2240, -318290, 45780
26857, -568, -897, -432, -10150, -305270, 21700
26877, -557, -871, -417, -10500, -297990, 0
26897, -554, -871, -420, -8330, -294980, -17640
26917, -557, -878, -421, -11060, -287070, -35630
26937, -557, -880, -416, -16170, -273770, -54740
26957, -542, -851, -397, -26180, -253190, -74060
26977, -517, -804, -371, -33180, -242270, -85190
26997, -490, -752, -349, -34930, -246330, -84140
27017, -458, -699, -327, -41580, -250390, -77350
27037, -427, -643, -301, -47950, -248850, -71120
27057, -391, -585, -268, -51380, -222810, -70280
27077, -364, -544, -248, -60200, -196420, -68600
27097, -345, -519, -232, -71540, -166740, -60830
27117, -337, -513, -228, -86380, -133910, -47040
27137, -339, -522, -229, -99890, -99120, -31080
27157, -351, -548, -240, -108290, -66360, -14140
27177, -373, -590, -258, -110600, -37100, 2800
27197, -406, -655, -290, -107940, -11410, 18690
27217, -445, -737, -328, -100030, 13230, 29750
27237, -491, -827, -372, -90580, 40810, 35210
27257, -538, -925, -419, -88270, 70840, 42980
27277, -593, -1029, -465, -93310, 97580, 58940
27297, -632, -1098, -503, -98000, 110600, 83020
27317, -645, -1124, -522, -94150, 111160, 106190
27337, -628, -1091, -505, -79730, 114100, 119490
27357, -614, -1057, -490, -70070, 129080, 125930
27377, -616, -1047, -488, -74480, 155820, 131600
27397, -632, -1070, -506, -77980, 186340, 132020
27417, -658, -1109, -520, -74830, 219520, 123060
27437, -687, -1156, -543, -70980, 250530, 109690
27457, -723, -1219, -570, -66290, 269920, 101850
27477, -765, -1298, -608, -64120, 275310, 100310
27497, -793, -1350, -639, -55860, 270550, 95060
27517, -780, -1325, -620, -43680, 266560, 81620
27537, -736, -1236, -568, -40390, 269990, 63140
27557, -690, -1140, -515, -41230, 263760, 52430
27577, -652, -1073, -490, -38640, 244650, 49770
27597, -623, -1011, -451, -30590, 226310, 42280
27617, -611, -994, -449, -33250, 224280, 28140
27637, -591, -953, -422, -15050, 211190, 10290
27657, -566, -913, -402, 9870, 189210, -140
27677, -546, -873, -378, 5670, 187530, -13440
27697, -528, -837, -356, -6090, 187390, -20300
27717, -509, -794, -338, -5320, 168700, -16520
27737, -472, -730, -299, 1750, 137550, -9940
27757, -438, -670, -276, 18410, 93870, 2870
27777, -413, -620, -254, 18480, 59150, 21280
27797, -396, -584, -247, 9660, 43540, 32270
27817, -378, -546, -228, 12180, 34020, 32060
27837, -363, -518, -213, 18060, 32830, 20160
27857, -345, -487, -193, 21420, 29470, 10080
27877, -333, -469, -187, 27370, 14770, 11760
27897, -345, -487, -197, 27930, -7490, 26810
27917, -364, -521, -213, 23940, -27160, 43120
27937, -416, -626, -274, 19320, -44520, 54180
27957, -453, -709, -307, 22750, -56000, 53130
27977, -531, -868, -388, 27510, -54250, 40040
27997, -603, -1011, -457, 25830, -60830, 39830
28017, -686, -1172, -532, 30030, -71820, 38710
28037, -747, -1294, -602, 14070, -77700, 37450
28057, -743, -1277, -585, 12250, -112700, 45850
28077, -690, -1175, -547, 34020, -171920, 61320
28097, -625, -1043, -493, 46410, -230440, 77910
28117, -574, -946, -450, 46410, -259280, 82530
28137, -555, -898, -434, 39340, -259980, 74480
28157, -565, -920, -445, 38150, -247800, 52780
28177, -608, -1002, -477, 43960, -231000, 21070
28197, -687, -1150, -551, 45010, -214620, -9520
28217, -779, -1324, -634, 41090, -211540, -28210
28237, -842, -1438, -699, 34580, -220430, -40530
28257, -816, -1380, -673, 29050, -243530, -50680
28277, -737, -1217, -597, 34370, -280560, -59570
28297, -658, -1055, -523, 37660, -321230, -62300
28317, -595, -932, -463, 36750, -349720, -67830
28337, -551, -852, -427, 28630, -350700, -83860
28357, -521, -804, -392, 11480, -328790, -107310
28377, -511, -789, -381, -8680, -294420, -131670
28397, -511, -795, -379, -31290, -262360, -145180
28417, -512, -798, -379, -46200, -242900, -148610
28437, -503, -791, -374, -51730, -233590, -145670
28457, -484, -761, -360, -54670, -225680, -140420
28477, -455, -710, -332, -55370, -216160, -134400
28497, -422, -653, -300, -53060, -205800, -126420
28517, -386, -600, -275, -51870, -196910, -112280
28537, -354, -554, -251, -53970, -185220, -92190
28557, -336, -525, -239, -59850, -165200, -69720
28577, -331, -516, -231, -68670, -136710, -45920
28597, -330, -515, -230, -73080, -104790, -23380
28617, -334, -531, -234, -68530, -74410, -3640
28637, -349, -564, -247, -59500, -47460, 16170
28657, -379, -621, -279, -50120, -23030, 39410
28677, -423, -705, -319, -42700, 1820, 64470
28697, -484, -819, -376, -38430, 31290, 86310
28717, -552, -946, -436, -37030, 66290, 101850
28737, -614, -1070, -490, -35980, 102480, 111370
28757, -666, -1168, -541, -32480, 128030, 122710
28777, -681, -1199, -563, -29960, 134260, 145810
28797, -656, -1142, -540, -27160, 132020, 191590
28817, -614, -1048, -497, -13300, 145180, 204960
28837, -595, -999, -477, -12530, 167440, 215810
28857, -611, -1016, -494, -17990, 201110, 219450
28877, -656, -1088, -538, -24150, 249200, 207130
28897, -711, -1184, -579, -23240, 301000, 180740
28917, -772, -1294, -622, -23170, 337680, 160790
28937, -825, -1389, -671, -29610, 346780, 160300
28957, -834, -1400, -681, -30100, 332010, 167440
28977, -785, -1309, -631, -13020, 311850, 161630
28997, -724, -1186, -565, 2870, 306670, 141470
29017, -673, -1081, -507, 2520, 316960, 116410
29037, -630, -992, -457, 2240, 325010, 92260
29057, -602, -935, -429, 13650, 319270, 71820
29077, -580, -897, -409, 32130, 303450, 54880
29097, -584, -901, -406, 35560, 299600, 37870
29117, -579, -898, -401, 34860, 290920, 25340
29137, -567, -878, -390, 56490, 254450, 23800
29157, -536, -833, -368, 71330, 222180, 20370
29177, -508, -781, -339, 65450, 212450, 10920
29197, -484, -731, -310, 53620, 201530, 9100
29217, -449, -664, -273, 52780, 178150, 11830
29237, -405, -591, -231, 66150, 137130, 20300
29257, -383, -556, -230, 70770, 88340, 41790
29277, -357, -510, -208, 66010, 57400, 57540
29297, -346, -483, -194, 56770, 52570, 57820
29317, -349, -486, -195, 36750, 52430, 61670
29337, -355, -497, -203, 26880, 44380, 64190
29357, -377, -539, -224, 27020, 32130, 60410
29377, -393, -582, -241, 32900, 21210, 49420
29397, -424, -649, -266, 38920, 10710, 41020
29417, -481, -763, -322, 26040, 770, 48370
29437, -547, -892, -383, 3220, -12810, 67270
29457, -627, -1052, -467, -12950, -34440, 86800
29477, -708, -1216, -564, -26180, -62790, 106050
29497, -744, -1279, -595, -29120, -83650, 109270
29517, -707, -1213, -553, -19740, -101850, 97230
29537, -653, -1109, -505, -8120, -133980, 93660
29557, -624, -1048, -485, -3010, -180390, 112210
29577, -607, -1021, -481, -6090, -213010, 129920
29597, -614, -1030, -487, -9660, -218120, 125860
29617, -629, -1068, -506, -15260, -204960, 108640
29637, -668, -1134, -537, -13440, -194600, 86590
29657, -715, -1218, -576, -9450, -192990, 67270
29677, -756, -1296, -616, -5600, -203560, 53830
29697, -777, -1321, -634, -4900, -225120, 46200
29717, -732, -1237, -600, 2100, -259700, 44730
29737, -674, -1117, -539, 14210, -294280, 38920
29757, -618, -1007, -487, 10150, -307580, 29400
29777, -589, -938, -452, -3290, -307790, 19040
29797, -565, -892, -437, -11550, -303450, 5320
29817, -547, -859, -418, -7490, -298480, -15540
29837, -526, -831, -396, -350, -287070, -41440
29857, -519, -810, -382, -4830, -267400, -63350
29877, -507, -793, -369, -21070, -247940, -72520
29897, -497, -772, -361, -34230, -238420, -71470
29917, -470, -728, -340, -40250, -234290, -67830
29937, -441, -679, -315, -38360, -229180, -67900
29957, -410, -627, -287, -36050, -218820, -68320
29977, -383, -582, -265, -39410, -202090, -65590
29997, -359, -548, -247, -46550, -181440, -58100
30017, -341, -521, -235, -53130, -158900, -47530
30037, -328, -505, -225, -59150, -131110, -36820
30057, -327, -505, -224, -66430, -97370, -25130
30077, -328, -517, -225, -72940, -61110, -11900
30097, -344, -545, -237, -76790, -24570, 2100
30117, -372, -594, -262, -82250, 10430, 19740
30137, -419, -678, -301, -86940, 41510, 39620
30157, -476, -786, -364, -86100, 67900, 56980
30177, -547, -928, -432, -79940, 98490, 62580
30197, -621, -1074, -489, -72380, 142660, 50890
30217, -680, -1198, -532, -65590, 185500, 36890
30237, -736, -1287, -586, -72240, 202370, 51100
30257, -739, -1275, -608, -101710, 184100, 102410
30277, -680, -1167, -559, -110390, 149170, 145320
30297, -618, -1052, -489, -77000, 140490, 138250
30317, -586, -982, -446, -42490, 167440, 102340
30337, -606, -1005, -462, -39830, 208740, 80010
30357, -676, -1126, -525, -70070, 249970, 80640
30377, -756, -1271, -598, -97650, 281050, 80850
30397, -823, -1404, -647, -93380, 300440, 61320
30417, -858, -1485, -682, -69300, 304780, 32060
30437, -841, -1455, -673, -53270, 281610, 23450
30457, -756, -1294, -599, -51940, 237090, 34790
30477, -667, -1110, -496, -46340, 204820, 29330
30497, -599, -979, -425, -40600, 203070, 4550
30517, -562, -900, -384, -47880, 206150, -12040
30537, -555, -881, -380, -60060, 196000, -11830
30557, -538, -865, -384, -37240, 140980, -12880
30577, -520, -827, -363, 9380, 113540, -30170
30597, -506, -810, -346, 4620, 132370, -56000
30617, -507, -807, -336, -25620, 149940, -60690
30637, -511, -803, -336, -47320, 138950, -43540
30657, -501, -784, -332, -46060, 100240, -24920
30677, -465, -720, -303, -14840, 47740, -15540
30697, -424, -651, -271, 10570, 7840, -11200
30717, -394, -591, -243, 13440, -13230, -1960
30737, -368, -541, -220, 4480, -24150, 9380
30757, -356, -513, -214, -9800, -28000, 18690
30777, -345, -492, -210, -15890, -30100, 20860
30797, -345, -486, -207, -10220, -31990, 14770
30817, -351, -492, -208, 1470, -38080, 7350
30837, -366, -520, -215, 16520, -52780, 3500
30857, -387, -564, -236, 28770, -76720, 6930
30877, -433, -663, -289, 34720, -104090, 17570
30897, -512, -823, -384, 34720, -119840, 24220
30917, -593, -986, -457, 36400, -111510, 8750
30937, -685, -1175, -535, 37870, -87920, -22190
30957, -761, -1325, -607, 22750, -94430, -24710
30977, -797, -1373, -646, 17850, -152600, 4760
30997, -759, -1299, -635, 30380, -235550, 40740
31017, -688, -1151, -566, 50610, -286160, 39130
31037, -637, -1046, -512, 72030, -291690, 1190
31057, -605, -992, -483, 70840, -284690, -31500
31077, -629, -1029, -498, 54180, -274610, -50260
31097, -682, -1122, -549, 26950, -264320, -58590
31117, -749, -1233, -613, 12810, -259140, -76160
31137, -783, -1290, -639, 25550, -270340, -103810
31157, -773, -1270, -636, 47810, -297570, -131390
31177, -724, -1174, -588, 49350, -317380, -154280
31197, -675, -1075, -536, 26530, -322560, -168490
31217, -632, -990, -500, 2240, -324100, -176750
31237, -601, -931, -471, -11130, -326760, -184100
31257, -577, -899, -455, -18760, -324450, -192360
31277, -567, -883, -442, -35280, -305690, -203210
31297, -558, -879, -437, -56350, -272790, -216440
31317, -544, -858, -417, -70700, -243180, -224910
31337, -528, -838, -405, -77280, -224770, -222670
31357, -504, -808, -387, -83580, -219170, -203280
31377, -478, -768, -370, -86100, -220150, -174790
31397, -446, -710, -343, -84420, -217000, -146930
31417, -407, -646, -309, -78400, -203910, -126350
31437, -362, -574, -269, -70910, -181230, -109760
31457, -329, -522, -241, -65520, -153440, -90300
31477, -310, -488, -223, -61950, -124950, -62930
31497, -296, -466, -215, -54880, -97300, -31780
31517, -290, -455, -212, -41720, -69510, -2590
31537, -291, -457, -210, -23310, -40740, 21700
31557, -299, -474, -222, -910, -11060, 41860
31577, -320, -510, -238, 23310, 17780, 60550
31597, -350, -565, -263, 47110, 47600, 79030
31617, -400, -660, -307, 65030, 79310, 100940
31637, -480, -806, -378, 70280, 111930, 129500
31657, -615, -1051, -510, 61390, 144970, 163310
31677, -742, -1285, -625, 43680, 180950, 189840
31697, -788, -1385, -671, 34510, 214480, 197190
31717, -730, -1275, -598, 47320, 222950, 199290
31737, -649, -1106, -522, 65100, 201950, 224840
31757, -598, -985, -485, 63350, 174090, 273560
31777, -578, -927, -469, 50680, 177030, 306950
31797, -597, -948, -494, 44030, 219170, 304850
31817, -664, -1048, -540, 39340, 290430, 274540
31837, -761, -1219, -616, 30800, 374150, 230230
31857, -873, -1433, -711, 21140, 439600, 193480
31877, -953, -1596, -787, 14980, 458780, 183750
31897, -914, -1521, -753, 13790, 429660, 199500
31917, -813, -1316, -652, 14910, 387450, 213430
31937, -715, -1117, -544, 17080, 371630, 196070
31957, -637, -965, -461, 30030, 377370, 152460
31977, -591, -877, -415, 56280, 378280, 107100
31997, -574, -846, -395, 80360, 373240, 74130
32017, -581, -863, -407, 91140, 367990, 52570
32037, -605, -903, -418, 91490, 365610, 35980
32057, -595, -894, -403, 86100, 363090, 19110
32077, -573, -866, -373, 94360, 340060, 4900
32097, -542, -830, -360, 112490, 293650, 5530
32117, -512, -783, -345, 117530, 232820, 25550
32137, -480, -711, -303, 114520, 192080, 35560
32157, -432, -630, -259, 103740, 180040, 25830
32177, -393, -557, -218, 93100, 167370, 17010
32197, -359, -498, -193, 89740, 135730, 24640
32217, -334, -457, -177, 88130, 92890, 43610
32237, -323, -435, -169, 83580, 58240, 60970
32257, -319, -430, -172, 68880, 39620, 72520
32277, -323, -440, -174, 47740, 36120, 76370
32297, -340, -472, -189, 28910, 39270, 73640
32317, -382, -554, -227, 4550, 36190, 70140
32337, -431, -656, -275, -4970, 31920, 69790
32357, -506, -814, -351, -16590, 29680, 70770
32377, -604, -1011, -442, -33670, 30800, 73570
32397, -729, -1253, -558, -58450, 29120, 80290
32417, -829, -1455, -662, -78540, 1120, 97440
32437, -823, -1441, -665, -70840, -64540, 123830
32457, -714, -1233, -561, -52430, -128450, 142310
32477, -613, -1034, -465, -56420, -155050, 148680
32497, -560, -922, -417, -71330, -162680, 156100
32517, -552, -905, -418, -75950, -168420, 163240
32537, -580, -972, -457, -73360, -162680, 155400
32557, -638, -1088, -502, -72660, -138950, 132650
32577, -744, -1292, -619, -81830, -110180, 108290
32597, -805, -1405, -654, -77140, -105210, 91280
32617, -807, -1416, -653, -48510, -134750, 80920
32637, -756, -1307, -600, -34230, -193410, 99750
32657, -691, -1162, -537, -38710, -241150, 125370
32677, -629, -1036, -492, -47460, -268310, 141120
32697, -559, -909, -426, -41510, -265930, 124460
32717, -523, -841, -389, -37450, -238840, 92120
32737, -511, -817, -375, -40110, -213290, 66220
32757, -517, -824, -377, -35560, -198520, 45850
32777, -526, -844, -387, -29330, -191940, 31570
32797, -535, -867, -395, -21420, -188720, 19180
32817, -528, -853, -382, -20370, -179550, 9170
32837, -521, -836, -376, -29820, -169540, 4830
32857, -497, -790, -355, -35420, -170730, 9590
32877, -461, -725, -327, -29680, -174440, 11410
32897, -424, -655, -291, -25760, -168420, 7560
32917, -387, -588, -258, -24360, -152810, 1610
32937, -358, -537, -232, -27930, -131320, -1260
32957, -342, -509, -221, -35840, -106400, 350
32977, -331, -490, -215, -42560, -79450, 2030
32997, -329, -487, -213, -46340, -44660, -3220
33017, -332, -495, -215, -52710, -1120, -12950
33037, -351, -526, -224, -60130, 46620, -24500
33057, -386, -580, -244, -67690, 90790, -33810
33077, -431, -659, -278, -70350, 124880, -41510
33097, -486, -771, -332, -65940, 147700, -49420
33117, -555, -907, -393, -58730, 164640, -58660
33137, -636, -1055, -456, -56490, 183260, -68600
33157, -694, -1177, -513, -64890, 196070, -71960
33177, -718, -1219, -535, -73780, 178780, -59850
33197, -694, -1178, -528, -72660, 140910, -42000
33217, -670, -1127, -503, -67970, 111020, -39620
33237, -650, -1083, -476, -68390, 112280, -57120
33257, -645, -1078, -469, -72870, 128450, -83720
33277, -671, -1130, -495, -82880, 139650, -101010
33297, -721, -1225, -540, -98840, 146440, -108430
33317, -767, -1312, -581, -116550, 149380, -115710
33337, -783, -1344, -599, -123620, 134610, -119140
33357, -768, -1317, -594, -117320, 96600, -113890
33377, -722, -1241, -559, -111160, 55090, -107100
33397, -678, -1150, -511, -115570, 38360, -112560
33417, -633, -1065, -464, -131530, 42770, -122570
33437, -604, -1005, -439, -144620, 38990, -122640
33457, -584, -966, -426, -150010, 20580, -110740
33477, -572, -939, -416, -151690, -700, -97860
33497, -573, -940, -425, -151200, -13370, -92120
33517, -553, -898, -390, -149590, -17570, -93730
33537, -533, -873, -384, -135170, -21070, -102480
33557, -504, -824, -362, -121380, -45010, -90580
33577, -476, -761, -330, -115010, -65730, -71890
33597, -453, -701, -301, -131810, -59080, -59850
33617, -427, -644, -278, -141610, -63140, -41790
33637, -399, -589, -261, -125020, -91770, -20650
33657, -374, -543, -240, -98000, -119420, -9660
33677, -351, -505, -222, -74690, -123340, -15680
33697, -344, -489, -215, -60900, -110390, -29540
33717, -342, -491, -219, -50610, -99470, -37030
33737, -364, -527, -237, -38010, -93730, -39830
33757, -400, -590, -266, -25900, -84560, -45780
33777, -440, -669, -309, -6160, -77210, -58520
33797, -480, -756, -345, 25410, -76930, -75110
33817, -538, -873, -395, 54250, -75460, -92540
33837, -617, -1026, -474, 62650, -72310, -97440
33857, -689, -1179, -556, 66290, -87080, -85960
33877, -718, -1232, -581, 79100, -115710, -74480
33897, -695, -1178, -553, 72730, -125580, -73080
33917, -665, -1103, -528, 54040, -127190, -76720
33937, -626, -1028, -508, 62580, -159950, -71400
33957, -596, -966, -475, 92680, -197680, -78540
33977, -579, -947, -460, 118160, -200340, -111160
33997, -604, -989, -465, 111790, -172690, -145880
34017, -658, -1094, -525, 84980, -147280, -158550
34037, -731, -1226, -599, 59570, -142730, -154000
34057, -775, -1308, -637, 38220, -138950, -174580
34077, -760, -1263, -609, 39200, -143780, -195370
34097, -681, -1122, -544, 53060, -178500, -199570
34117, -608, -988, -483, 59500, -215320, -191170
34137, -555, -893, -428, 42070, -213640, -187600
34157, -526, -850, -407, 3640, -176960, -193550
34177, -529, -847, -396, -28070, -144410, -191310
34197, -539, -878, -420, -37030, -124600, -187950
34217, -550, -903, -423, -32480, -111790, -186270
34237, -551, -920, -433, -27860, -96320, -185150
34257, -540, -907, -415, -23520, -85260, -174580
34277, -519, -876, -403, -20580, -84210, -150850
34297, -480, -805, -368, -17360, -86590, -121240
34317, -436, -730, -332, -12880, -81200, -95340
34337, -394, -651, -295, -10990, -67270, -69230
34357, -365, -596, -267, -8050, -47740, -42770
34377, -348, -557, -254, -1190, -22890, -20510
34397, -335, -529, -244, 13020, 6580, -7350
34417, -323, -507, -234, 32690, 40250, 0
34437, -312, -486, -218, 54670, 71190, 11130
34457, -310, -482, -212, 71680, 91980, 39480
34477, -327, -511, -231, 76090, 105070, 87430
34497, -365, -573, -271, 68740, 124180, 136780
34517, -427, -670, -325, 59640, 160510, 166810
34537, -484, -768, -374, 59500, 210700, 171150
34557, -547, -872, -420, 66780, 262220, 162610
34577, -610, -997, -475, 69650, 302260, 161840
34597, -685, -1129, -544, 57890, 322280, 182770
34617, -725, -1198, -588, 41230, 323330, 215250
34637, -713, -1166, -570, 42420, 314370, 236460
34657, -677, -1083, -537, 48020, 318500, 238350
34677, -660, -1024, -508, 38570, 344820, 225820
34697, -664, -1008, -501, 27020, 379890, 205520
34717, -677, -1036, -512, 34230, 403480, 177100
34737, -723, -1120, -548, 54670, 417970, 142800
34757, -791, -1240, -603, 57190, 439810, 109760
34777, -853, -1358, -649, 35630, 465150, 79100
34797, -869, -1411, -670, 21350, 464030, 55510
34817, -829, -1353, -635, 41370, 412090, 42490
34837, -765, -1239, -573, 71680, 348110, 33530
34857, -706, -1128, -515, 73640, 313740, 17290
34877, -663, -1037, -464, 63630, 298620, -7070
34897, -625, -975, -433, 64890, 277200, -30170
34917, -601, -933, -405, 73360, 247520, -51380
34937, -589, -914, -385, 77000, 220570, -69160
34957, -584, -918, -395, 66220, 193760, -78610
34977, -550, -868, -352, 49840, 161000, -77000
34997, -544, -862, -351, 38360, 126420, -73850
35017, -531, -835, -358, 11620, 78960, -48300
35037, -502, -771, -332, 6580, 28420, -31850
35057, -450, -683, -285, 10010, 11270, -49280
35077, -404, -595, -231, 7070, 9380, -75600
35097, -373, -536, -204, -3150, -6300, -74900
35117, -357, -500, -195, -19110, -40880, -47670
35137, -341, -478, -192, -29750, -79030, -17430
35157, -339, -471, -196, -39830, -103390, 1680
35177, -343, -482, -203, -57190, -105280, 7980
35197, -359, -504, -212, -71120, -98280, 6020
35217, -388, -551, -233, -73710, -97160, 1610
35237, -429, -635, -277, -68390, -105770, -3780
35257, -486, -755, -342, -56140, -120330, -12390
35277, -550, -893, -404, -38920, -135240, -23520
35297, -622, -1037, -463, -27930, -143080, -34370
35317, -702, -1185, -542, -35910, -155610, -28980
35337, -759, -1279, -612, -53830, -198730, 6230
35357, -739, -1244, -615, -52500, -262710, 44660
35377, -670, -1118, -540, -30590, -301630, 42700
35397, -615, -992, -478, -12950, -298270, 3640
35417, -591, -945, -464, -1680, -298410, -24990
35437, -597, -958, -482, 13860, -328230, -26390
35457, -645, -1048, -529, 23730, -347970, -28140
35477, -713, -1173, -584, 14980, -331170, -50470
35497, -783, -1293, -641, 1610, -300230, -84490
35517, -806, -1325, -666, -4060, -287770, -113750
35537, -767, -1241, -626, 6510, -309680, -133700
35557, -716, -1135, -577, 14630, -333620, -155820
35577, -663, -1028, -527, 11620, -349790, -175980
35597, -611, -944, -482, 14770, -368620, -190260
35617, -575, -888, -453, 9660, -375690, -202300
35637, -569, -884, -444, -22330, -354970, -211680
35657, -587, -913, -460, -70630, -313740, -217700
35677, -596, -928, -467, -108080, -272860, -223580
35697, -579, -909, -449, -109900, -249970, -234990
35717, -543, -867, -420, -88480, -240520, -247520
35737, -513, -819, -396, -77420, -238210, -242060
35757, -478, -766, -371, -84000, -237580, -213850
35777, -442, -703, -339, -94430, -233660, -178220
35797, -397, -634, -301, -99400, -220640, -149520
35817, -358, -569, -263, -102340, -166530, -105000
35837, -338, -534, -249, -102130, -140630, -73010
35857, -329, -515, -243, -91350, -118650, -41440
35877, -320, -501, -237, -66850, -94780, -21630
35897, -308, -483, -228, -33880, -66290, -14630
35917, -298, -469, -217, -1190, -36400, -8680
35937, -300, -479, -219, 23800, -9800, 8540
35957, -320, -519, -236, 37590, 15470, 38290
35977, -360, -590, -270, 43610, 42630, 74340
35997, -421, -697, -322, 47040, 70420, 109480
36017, -500, -844, -395, 52570, 94780, 139930
36037, -605, -1050, -499, 61740, 112700, 163380
36057, -699, -1230, -598, 66570, 130340, 180180
36077, -741, -1314, -642, 69790, 151200, 186200
36097, -690, -1214, -573, 82600, 168280, 185920
36117, -613, -1058, -486, 92960, 161840, 209930
36137, -575, -968, -455, 79870, 140700, 268870
36157, -588, -962, -480, 54180, 142380, 320810
36177, -628, -1023, -527, 37240, 185570, 328230
36197, -682, -1120, -576, 42140, 255500, 290640
36217, -754, -1253, -628, 54670, 330190, 240030
36237, -839, -1409, -697, 45850, 379750, 220360
36257, -885, -1485, -738, 18900, 392840, 235340
36277, -838, -1382, -690, 6230, 372680, 259490
36297, -766, -1233, -622, 10710, 351330, 267330
36317, -725, -1131, -574, 12390, 359310, 247590
36337, -692, -1061, -535, 17850, 387660, 204120
36357, -661, -1000, -492, 48370, 405720, 150710
36377, -633, -956, -460, 82320, 409080, 108990
36397, -632, -953, -454, 87360, 410060, 89040
36417, -656, -991, -471, 66500, 413630, 80570
36437, -656, -994, -460, 46340, 411320, 67060
36457, -619, -950, -442, 69720, 366100, 55860
36477, -566, -864, -387, 119980, 292810, 56070
36497, -528, -797, -356, 134470, 253470, 48930
36517, -490, -722, -314, 115150, 241570, 41930
36537, -444, -636, -266, 101360, 227150, 36750
36557, -395, -553, -225, 101640, 194250, 40390
36577, -350, -477, -193, 109550, 147490, 55580
36597, -323, -427, -169, 108500, 111510, 72380
36617, -307, -397, -157, 90930, 95830, 85120
36637, -300, -380, -146, 71050, 87570, 93520
36657, -302, -387, -151, 56280, 77630, 98070
36677, -319, -418, -167, 44030, 65380, 99820
36697, -344, -477, -196, 37240, 53270, 97090
36717, -381, -565, -238, 35070, 46130, 90230
36737, -452, -709, -303, 26600, 51730, 81410
36757, -565, -932, -403, 7070, 68670, 73920
36777, -719, -1238, -546, -21490, 84630, 72730
36797, -865, -1528, -689, -58100, 83300, 84350
36817, -896, -1577, -734, -85120, 35910, 118370
36837, -776, -1351, -626, -76580, -56070, 160650
36857, -649, -1109, -506, -45010, -130060, 172690
36877, -570, -956, -431, -38640, -149730, 165970
36897, -536, -884, -398, -54320, -139860, 160930
36917, -543, -896, -407, -73430, -124950, 161700
36937, -597, -995, -459, -87430, -114240, 163800
36957, -691, -1182, -556, -93450, -105280, 162050
36977, -810, -1416, -679, -91140, -97650, 149310
36997, -850, -1508, -711, -70700, -99400, 122080
37017, -780, -1368, -618, -35560, -116900, 92330
37037, -682, -1156, -513, -21420, -150990, 88410
37057, -624, -1018, -461, -38710, -206990, 126700
37077, -592, -947, -451, -67270, -254240, 173460
37097, -566, -906, -438, -74620, -270480, 183400
37117, -537, -868, -413, -56770, -250180, 144550
37137, -517, -832, -375, -33670, -204050, 76930
37157, -522, -837, -362, -20650, -158550, 17290
37177, -543, -868, -375, -24920, -139860, -3920
37197, -561, -896, -398, -39130, -155260, 12250
37217, -549, -875, -400, -45010, -190190, 38780
37237, -511, -807, -365, -39130, -213500, 45850
37257, -465, -715, -320, -31570, -210630, 29610
37277, -417, -629, -275, -29050, -196280, 9170
37297, -381, -560, -243, -33040, -181930, -2520
37317, -353, -510, -221, -43050, -167580, -5740
37337, -333, -472, -206, -53410, -149240, -7560
37357, -321, -455, -195, -61180, -125300, -11900
37377, -316, -448, -190, -66220, -97020, -18830
37397, -320, -463, -195, -68600, -66430, -27160
37417, -339, -498, -212, -72380, -34090, -34790
37437, -369, -554, -236, -80220, 3500, -43890
37457, -415, -645, -274, -91000, 48300, -58030
37477, -488, -773, -327, -102830, 98770, -77840
37497, -585, -956, -404, -113960, 149030, -99120
37517, -692, -1175, -503, -118370, 181650, -114450
37537, -787, -1372, -601, -110950, 176330, -113610
37557, -804, -1406, -629, -105490, 135030, -55930
37577, -717, -1232, -554, -121380, 42770, -40040
37597, -629, -1059, -467, -126350, 35630, -50610
37617, -573, -954, -411, -129080, 45010, -67620
37637, -566, -943, -408, -141330, 65590, -80430
37657, -608, -1025, -450, -159040, 95200, -91840
37677, -688, -1181, -527, -172690, 123760, -106540
37697, -799, -1402, -627, -179970, 136430, -115850
37717, -907, -1614, -737, -183750, 118370, -109480
37737, -920, -1639, -762, -180530, 72310, -93730
37757, -809, -1425, -653, -165270, 21350, -85330
37777, -682, -1184, -531, -161140, -8260, -80640
37797, -597, -1016, -454, -180250, -14560, -69020
37817, -572, -960, -435, -202650, -8540, -55650
37837, -571, -953, -433, -208460, 2310, -51940
37857, -574, -967, -437, -195090, 12810, -62230
37877, -591, -992, -441, -179340, 23100, -75110
37897, -592, -999, -449, -166670, 6510, -64540
37917, -575, -970, -442, -129990, -28980, -49000
37937, -523, -870, -376, -120050, -38220, -42210
37957, -492, -800, -346, -137900, -31150, -28980
37977, -452, -708, -311, -138600, -57470, 6720
37997, -417, -633, -284, -118300, -86240, 31080
38017, -370, -544, -242, -100590, -83860, 24220
38037, -336, -479, -208, -80570, -71890, 7350
38057, -308, -423, -183, -59290, -67690, -140
38077, -294, -400, -178, -38990, -72870, 3640
38097, -289, -382, -173, -20090, -75740, 7560
38117, -295, -389, -179, -4830, -68880, 1960
38137, -310, -416, -196, 12250, -59150, -10570
38157, -334, -462, -219, 39480, -51240, -31010
38177, -381, -542, -256, 69860, -37730, -58870
38197, -439, -654, -308, 96460, -16800, -91770
38217, -528, -830, -385, 121170, -210, -121310
38237, -653, -1106, -499, 133910, 6370, -135730
38257, -789, -1392, -633, 117390, 3150, -127610
38277, -870, -1540, -728, 81900, -30870, -89250
38297, -832, -1448, -705, 70980, -107590, -42280
38317, -736, -1250, -615, 89810, -172830, -31010
38337, -632, -1040, -512, 111790, -197470, -59780
38357, -567, -896, -439, 128660, -196000, -102060
38377, -530, -838, -409, 134260, -187810, -135730
38397, -553, -887, -423, 123760, -177800, -155120
38417, -630, -1032, -490, 93170, -157220, -164290
38437, -750, -1261, -607, 53060, -135520, -170870
38457, -872, -1493, -733, 23520, -128590, -180390
38477, -890, -1512, -752, 19530, -145670, -194040
38497, -791, -1313, -645, 37590, -179620, -215460
38517, -672, -1090, -530, 53970, -212310, -234570
38537, -584, -932, -448, 41650, -236810, -233450
38557, -530, -834, -403, 13230, -251020, -215250
38577, -506, -796, -389, -22820, -243740, -197400
38597, -503, -796, -388, -59080, -210490, -193410
38617, -515, -824, -392, -81410, -163870, -204120
38637, -526, -854, -398, -84980, -122570, -219380
38657, -520, -862, -387, -76580, -98560, -224560
38677, -506, -848, -381, -68950, -96670, -205660
38697, -484, -812, -374, -68110, -115220, -158340
38717, -453, -754, -351, -64680, -136430, -105910
38737, -410, -680, -315, -53340, -135520, -77350
38757, -368, -604, -273, -44310, -106680, -70490
38777, -335, -540, -236, -41160, -68320, -62790
38797, -317, -500, -221, -36260, -40390, -39130
38817, -308, -481, -217, -25340, -28350, -1330
38837, -304, -474, -221, -6860, -21000, 36050
38857, -304, -473, -225, 17990, -4970, 59080
38877, -306, -475, -222, 45500, 23940, 67340
38897, -320, -501, -230, 71050, 58450, 73780
38917, -359, -567, -261, 86450, 90020, 94360
38937, -427, -694, -330, 86660, 117950, 131740
38957, -529, -872, -427, 75670, 147140, 170730
38977, -645, -1087, -527, 61950, 188860, 191590
38997, -738, -1272, -611, 54460, 237160, 191030
39017, -769, -1348, -641, 56000, 264390, 191940
39037, -734, -1265, -609, 59360, 253680, 218750
39057, -658, -1109, -546, 61810, 221900, 263410
39077, -606, -986, -491, 67690, 209790, 292530
39097, -594, -936, -476, 63980, 241920, 294350
39117, -640, -986, -504, 47250, 298970, 282240
39137, -719, -1121, -579, 31150, 360220, 263410
39157, -814, -1296, -656, 28140, 412160, 235970
39177, -912, -1489, -736, 40110, 450520, 199780
39197, -949, -1560, -757, 40530, 475090, 172060
39217, -882, -1441, -700, 22120, 472710, 164570
39237, -777, -1244, -604, 14700, 428400, 170800
39257, -695, -1078, -520, 33040, 380800, 160580
39277, -633, -960, -452, 56420, 365820, 122780
39297, -598, -891, -409, 70350, 373100, 75880
39317, -587, -873, -401, 88690, 357910, 23030
39337, -588, -886, -407, 92890, 338730, 8820
39357, -605, -915, -409, 88620, 331310, -11760
39377, -582, -895, -382, 92120, 307230, -24570
39397, -566, -879, -375, 102480, 241290, -4130
39417, -543, -842, -364, 97720, 180810, 17780
39437, -509, -776, -334, 79660, 158340, 14280
39457, -463, -691, -285, 70350, 147350, -1470
39477, -420, -609, -239, 70420, 121800, -6090
39497, -379, -543, -211, 71400, 79100, 6930
39517, -345, -485, -186, 64400, 40110, 26390
39537, -328, -450, -173, 42280, 19740, 44170
39557, -320, -435, -171, 15960, 10990, 57820
39577, -327, -442, -175, -1890, 6510, 63070
39597, -343, -475, -191, -11970, 3010, 58940
39617, -365, -526, -213, -14070, -2030, 49630
39637, -395, -597, -247, -11130, -11270, 43680
39657, -448, -703, -293, -17640, -15470, 45570
39677, -532, -864, -371, -40040, -12530, 53690
39697, -657, -1108, -496, -67760, -17360, 65730
39717, -779, -1359, -629, -76580, -43190, 78260
39737, -816, -1433, -656, -56840, -87920, 84630
39757, -742, -1286, -571, -49350, -131320, 94080
39777, -659, -1098, -506, -66220, -180880, 121590
39797, -609, -1003, -471, -70910, -223440, 143780
39817, -581, -961, -452, -56980, -240800, 136290
39837, -565, -945, -434, -38920, -233520, 109760
39857, -596, -1000, -460, -39130, -215600, 89880
39877, -674, -1145, -542, -60760, -204610, 91420
39897, -783, -1345, -656, -69860, -210490, 94360
39917, -848, -1474, -720, -50960, -214550, 68250
39937, -812, -1411, -663, -10920, -226730, 21910
39957, -735, -1241, -578, 13580, -270340, 11830
39977, -652, -1086, -519, 1260, -336140, 47740
39997, -604, -960, -478, -16870, -372120, 71890
40017, -560, -883, -441, -24150, -361690, 55930
40037, -535, -835, -410, -17430, -330750, 12320
40057, -520, -811, -392, -6790, -299600, -31220
40077, -524, -823, -392, -5530, -276360, -61180
40097, -537, -850, -402, -15680, -254170, -78470
40117, -551, -876, -411, -28070, -235410, -87570
40137, -548, -872, -404, -32130, -229740, -89250
40157, -518, -822, -382, -25060, -238980, -83860
40177, -483, -762, -355, -19880, -251650, -71330
40197, -440, -697, -321, -28070, -249060, -58590
40217, -405, -626, -290, -42560, -225470, -54180
40237, -369, -566, -258, -51310, -192570, -56350
40257, -336, -511, -226, -52640, -159250, -58380
40277, -310, -474, -206, -52920, -129220, -52150
40297, -294, -446, -193, -56980, -102760, -32830
40317, -297, -451, -199, -65170, -76440, -3710
40337, -312, -484, -216, -75320, -47110, 27650
40357, -337, -529, -240, -78330, -10430, 46620
40377, -368, -588, -267, -72100, 35420, 47600
40397, -402, -658, -292, -61810, 88620, 36820
40417, -478, -802, -352, -60550, 144900, 30800
40437, -602, -1018, -460, -83510, 195370, 45990
40457, -735, -1270, -598, -114380, 226940, 74620
40477, -794, -1400, -660, -111510, 227430, 91070
40497, -753, -1326, -605, -63980, 205310, 87360
40517, -678, -1172, -533, -28070, 183610, 90370
40537, -634, -1062, -494, -48930, 182770, 112770
40557, -610, -1005, -469, -83020, 201740, 126630
40577, -609, -1007, -467, -78330, 224490, 110320
40597, -659, -1095, -501, -57190, 256340, 74620
40617, -752, -1268, -576, -56210, 299460, 41300
40637, -873, -1494, -693, -76090, 331800, 23030
40657, -898, -1561, -731, -85540, 322420, 19740
40677, -836, -1442, -657, -59640, 274610, 16170
40697, -738, -1266, -569, -33810, 233940, 4410
40717, -677, -1133, -507, -46830, 214340, -3500
40737, -628, -1039, -464, -65730, 196350, -2730
40757, -582, -946, -414, -61740, 175980, -10080
40777, -582, -940, -409, -47320, 170800, -36120
40797, -557, -904, -386, -51660, 181510, -60900
40817, -570, -923, -391, -37520, 157360, -65240
40837, -560, -930, -412, -30520, 125790, -55020
40857, -555, -897, -386, -42420, 102550, -46760
40877, -521, -838, -356, -50190, 98910, -48790
40897, -492, -770, -319, -58450, 93660, -54600
40917, -435, -670, -274, -43470, 53340, -41720
40937, -399, -601, -247, -23730, 6440, -26530
40957, -367, -538, -222, -24080, -22400, -10920
40977, -349, -496, -205, -30870, -37590, 3360
40997, -328, -455, -187, -36540, -42980, 9450
41017, -310, -422, -173, -30800, -50820, 10500
41037, -304, -414, -171, -18550, -60550, 8960
41057, -318, -435, -185, -17080, -65100, 9240
41077, -355, -496, -215, -14070, -72940, 9380
41097, -398, -574, -253, 2310, -80570, -3150
41117, -447, -676, -303, 30940, -97580, -20650
41137, -512, -823, -374, 55720, -115430, -34650
41157, -607, -1022, -468, 55300, -118300, -42140
41177, -718, -1242, -572, 34090, -116270, -39900
41197, -803, -1396, -652, 10010, -136360, -24150
41217, -800, -1379, -663, 10710, -194320, -1400
41237, -725, -1218, -588, 36400, -262150, 10640
41257, -651, -1066, -532, 59290, -305480, 2940
41277, -596, -961, -480, 76230, -312480, -28000
41297, -585, -946, -468, 79170, -293860, -67270
41317, -626, -1021, -494, 61810, -261240, -101220
41337, -702, -1161, -556, 34090, -234850, -121310
41357, -808, -1352, -666, 13090, -242130, -123340
41377, -883, -1481, -756, 11480, -272790, -129220
41397, -858, -1421, -725, 32270, -295330, -165550
41417, -760, -1221, -605, 49770, -302120, -214340
41437, -663, -1046, -517, 35350, -319900, -229670
41457, -599, -923, -469, 1400, -350280, -208460
41477, -561, -852, -442, -34440, -356090, -191800
41497, -536, -812, -423, -63210, -325220, -201250
41517, -527, -797, -403, -78260, -277340, -228060
41537, -523, -805, -395, -82950, -231560, -254590
41557, -522, -824, -393, -86240, -201600, -263900
41577, -520, -844, -398, -94500, -187250, -249130
41597, -522, -854, -403, -108080, -184940, -212170
41617, -502, -826, -393, -111650, -192920, -167160
41637, -467, -764, -365, -97790, -199010, -133560
41657, -419, -686, -326, -81830, -189210, -114940
41677, -374, -608, -284, -72240, -162960, -101640
41697, -332, -540, -249, -67340, -127680, -85680
41717, -310, -493, -224, -64120, -92120, -61530
41737, -295, -465, -212, -56490, -62090, -29820
41757, -295, -460, -213, -38570, -37660, 630
41777, -293, -460, -210, -11060, -14420, 24290
41797, -303, -474, -215, 21840, 6300, 45150
41817, -317, -507, -235, 54740, 22190, 70630
41837, -353, -574, -272, 79520, 39410, 99540
41857, -416, -690, -335, 93450, 66290, 127960
41877, -510, -856, -423, 95970, 112280, 143570
41897, -612, -1052, -506, 86590, 179410, 141960
41917, -694, -1210, -562, 70630, 241150, 139370
41937, -735, -1282, -608, 56490, 244300, 177380
41957, -682, -1179, -574, 57470, 192710, 246960
41977, -616, -1043, -518, 81620, 150150, 291760
41997, -571, -941, -470, 100660, 165760, 296590
42017, -565, -903, -450, 98000, 223160, 283850
42037, -608, -952, -484, 74200, 288120, 281120
42057, -676, -1063, -549, 41090, 347130, 279370
42077, -763, -1216, -621, 33250, 394100, 262430
42097, -863, -1408, -707, 46550, 429730, 234920
42117, -939, -1552, -769, 48580, 453460, 215250
42137, -935, -1531, -766, 27720, 454020, 217560
42157, -832, -1337, -668, 12950, 429800, 220500
42177, -714, -1104, -543, 41860, 402500, 192080
42197, -652, -982, -469, 74410, 400820, 145040
42217, -638, -951, -451, 80850, 413420, 106820
42237, -647, -969, -462, 73990, 416010, 85470
42257, -644, -965, -455, 75950, 404880, 67200
42277, -638, -960, -443, 91700, 388360, 39340
42297, -611, -930, -414, 103740, 371980, 11130
42317, -583, -902, -399, 123550, 326620, 4760
42337, -553, -852, -378, 130550, 267540, 19600
42357, -525, -791, -348, 116620, 235410, 24710
42377, -474, -695, -288, 101640, 221340, 17010
42397, -427, -619, -250, 96040, 203840, 6020
42417, -379, -537, -205, 94220, 166530, 11270
42437, -355, -496, -189, 98560, 117110, 27230
42457, -343, -475, -189, 85050, 78050, 50890
42477, -337, -461, -186, 62580, 55930, 68600
42497, -336, -462, -188, 47460, 49350, 69720
42517, -332, -459, -179, 34160, 52080, 58660
42537, -340, -476, -183, 26110, 52360, 46620
42557, -369, -542, -219, 20720, 41020, 47110
42577, -415, -636, -263, 7210, 28070, 58310
42597, -486, -779, -334, -10150, 26880, 66570
42617, -591, -974, -421, -38010, 36960, 73430
42637, -680, -1145, -506, -66010, 43050, 81830
42657, -715, -1235, -555, -74130, 22540, 93310
42677, -709, -1224, -548, -56070, -33320, 108990
42697, -660, -1123, -506, -44800, -76370, 121660
42717, -610, -1016, -453, -61110, -93380, 129920
42737, -574, -951, -431, -77210, -110670, 141960
42757, -573, -948, -438, -84140, -132020, 155050
42777, -601, -1009, -470, -83020, -145110, 161980
42797, -659, -1133, -534, -78540, -142450, 155820
42817, -736, -1284, -604, -75040, -102130, 109480
42837, -816, -1430, -666, -72520, -102690, 99890
42857, -818, -1433, -665, -69720, -132370, 102900
42877, -771, -1323, -616, -65310, -182560, 120190
42897, -699, -1180, -551, -59080, -233380, 138320
42917, -633, -1048, -491, -49980, -260120, 138740
42937, -583, -957, -447, -48300, -255640, 121800
42957, -553, -899, -418, -55860, -229740, 95690
42977, -551, -889, -406, -62440, -203630, 71330
42997, -559, -907, -415, -57610, -195930, 54180
43017, -571, -927, -425, -45430, -199990, 40950
43037, -569, -928, -427, -34720, -204400, 28280
43057, -546, -884, -402, -32550, -201180, 15960
43077, -512, -817, -366, -35280, -195440, 6650
43097, -474, -740, -329, -35630, -198870, 6860
43117, -435, -666, -298, -33460, -206500, 13370
43137, -401, -602, -271, -34790, -204120, 18410
43157, -369, -550, -248, -39270, -186830, 16870
43177, -345, -509, -229, -44240, -157080, 8050
43197, -331, -480, -213, -47390, -121100, -4550
43217, -320, -463, -203, -48230, -84070, -17150
43237, -316, -463, -199, -49560, -46060, -28210
43257, -323, -476, -204, -53970, -4340, -38430
43277, -347, -515, -217, -61810, 39760, -46970
43297, -378, -572, -239, -70560, 81690, -52640
43317, -427, -665, -278, -78050, 115920, -55090
43337, -499, -793, -338, -82180, 141330, -56840
43357, -584, -962, -420, -80850, 159320, -62510
43377, -675, -1141, -500, -76160, 169820, -71680
43397, -739, -1271, -559, -76720, 171220, -77770
43417, -749, -1285, -564, -83370, 155610, -73500
43437, -698, -1189, -525, -84560, 119000, -59920
43457, -640, -1074, -470, -80780, 81200, -48860
43477, -597, -999, -434, -85960, 71330, -50750
43497, -595, -988, -430, -102620, 87290, -64540
43517, -631, -1052, -462, -120750, 116200, -84980
43537, -694, -1175, -515, -129570, 141120, -108150
43557, -775, -1335, -592, -130760, 152460, -127120
43577, -841, -1472, -659, -134400, 145320, -136360
43597, -846, -1485, -672, -137970, 110880, -126350
43617, -779, -1359, -617, -135800, 51590, -102340
43637, -688, -1186, -538, -137760, 5250, -87360
43657, -622, -1047, -466, -151060, -1400, -91490
43677, -575, -959, -423, -165690, 13230, -103180
43697, -551, -915, -397, -167440, 14490, -105630
43717, -544, -902, -394, -160860, 1470, -96040
43737, -550, -908, -400, -158200, -13300, -81620
43757, -550, -911, -411, -159950, -21210, -69510
43777, -539, -880, -385, -158060, -23380, -65590
43797, -521, -849, -381, -152460, -26950, -63490
43817, -482, -778, -347, -129570, -56840, -49070
43837, -443, -706, -310, -104720, -76440, -41790
43857, -412, -642, -276, -104370, -70420, -40180
43877, -392, -590, -249, -109130, -64680, -31150
43897, -380, -557, -243, -105210, -77490, -10850
43917, -364, -530, -234, -88410, -100310, 8470
43937, -347, -501, -226, -63000, -110530, 9030
43957, -341, -487, -220, -41090, -103180, -5880
43977, -345, -496, -224, -21630, -90300, -22750
43997, -365, -527, -240, -2940, -78680, -36750
44017, -392, -580, -266, 15190, -67340, -50260
44037, -430, -657, -302, 36890, -59290, -64960
44057, -475, -757, -346, 58590, -53340, -79240
44077, -545, -892, -410, 73640, -46480, -89390
44097, -623, -1045, -481, 78960, -44730, -88620
44117, -692, -1185, -553, 80290, -55440, -78750
44137, -739, -1270, -607, 82390, -82180, -64960
44157, -724, -1236, -595, 84280, -109690, -58450
44177, -673, -1123, -539, 88620, -129290, -65940
44197, -619, -1017, -490, 98770, -148330, -78960
44217, -588, -961, -466, 110040, -168770, -92750
44237, -602, -983, -476, 116830, -182770, -105980
44257, -650, -1073, -517, 107240, -175700, -122850
44277, -714, -1202, -574, 82180, -149310, -147490
44297, -775, -1314, -632, 56630, -130130, -167930
44317, -809, -1369, -668, 42140, -138740, -175350
44337, -779, -1304, -643, 38640, -167930, -176190
44357, -698, -1160, -554, 45850, -195230, -189840
44377, -623, -1008, -486, 49910, -211050, -207900
44397, -571, -916, -441, 39480, -225820, -210560
44417, -542, -870, -422, 10010, -227500, -200130
44437, -529, -848, -411, -28210, -209090, -190610
44457, -523, -840, -402, -53620, -177240, -192850
44477, -518, -840, -394, -58170, -147630, -201460
44497, -508, -836, -388, -50330, -129220, -205450
44517, -492, -823, -376, -42910, -120890, -196420
44537, -474, -792, -363, -42910, -116130, -173040
44557, -447, -744, -340, -47740, -112420, -139720
44577, -412, -689, -310, -43120, -93240, -82320
44597, -382, -625, -285, -33460, -75180, -61670
44617, -357, -581, -263, -22330, -50820, -43470
44637, -338, -547, -247, -9380, -21770, -27440
44657, -322, -517, -232, 6790, 7700, -10780
44677, -312, -496, -222, 24920, 33110, 10640
44697, -311, -487, -219, 41230, 54250, 38570
44717, -323, -508, -233, 52710, 74410, 70280
44737, -346, -548, -257, 59990, 100450, 99120
44757, -380, -604, -284, 67060, 134890, 119700
44777, -420, -672, -314, 72870, 172970, 135100
44797, -484, -784, -367, 71540, 206920, 156240
44817, -569, -932, -447, 61110, 231700, 185780
44837, -649, -1083, -533, 54110, 252420, 207340
44857, -698, -1171, -575, 62650, 275380, 209230
44877, -697, -1172, -567, 72380, 298270, 206710
44897, -674, -1109, -531, 65730, 308980, 221760
44917, -660, -1058, -518, 41230, 312690, 253820
44937, -650, -1020, -512, 24150, 319900, 270760
44957, -655, -1013, -516, 33250, 343210, 252840
44977, -685, -1054, -535, 48440, 385840, 210630
44997, -737, -1142, -569, 50540, 440230, 161770
45017, -811, -1276, -617, 42140, 477960, 127400
45037, -854, -1372, -662, 34720, 479990, 112000
45057, -865, -1397, -670, 36890, 451570, 104440
45077, -827, -1334, -635, 44590, 418180, 89390
45097, -768, -1229, -578, 54950, 387310, 64610
45117, -711, -1124, -520, 67270, 355950, 40460
45137, -662, -1034, -475, 80290, 328020, 14840
45157, -630, -972, -435, 89250, 308630, -11900
45177, -608, -939, -412, 90580, 293230, -34930
45197, -603, -935, -408, 83790, 269220, -47040
45217, -578, -899, -374, 72590, 241710, -53410
45237, -564, -887, -369, 64400, 201740, -50750
45257, -542, -854, -366, 56210, 139930, -26320
45277, -519, -803, -344, 52640, 93870, -18900
45297, -475, -726, -304, 45640, 78260, -35210
45317, -434, -651, -257, 42140, 68110, -55020
45337, -404, -597, -232, 32410, 49560, -55860
45357, -378, -551, -214, 19320, 16660, -36610
45377, -365, -526, -207, 6510, -19810, -9170
45397, -355, -506, -202, -13580, -42280, 11760
45417, -353, -497, -198, -35070, -49630, 20860
45437, -362, -515, -210, -49980, -57470, 26950
45457, -383, -554, -229, -52430, -72660, 30940
45477, -411, -616, -265, -46130, -85540, 26810
45497, -445, -693, -300, -40530, -91280, 15820
45517, -479, -763, -319, -37730, -88060, 1680
45537, -535, -869, -370, -46690, -86310, -420
45557, -609, -1000, -442, -61320, -114240, 27930
45577, -668, -1118, -522, -67480, -160860, 64330
45597, -681, -1144, -542, -62720, -199080, 78750
45617, -655, -1098, -517, -37240, -221550, 66500
45637, -627, -1042, -483, -18200, -230720, 46200
45657, -610, -1010, -474, -18270, -241080, 39900
45677, -629, -1040, -503, -21140, -261170, 47880
45697, -649, -1080, -526, -20370, -277060, 51100
45717, -675, -1131, -548, -6090, -282940, 33250
45737, -714, -1206, -590, 10150, -288120, 11130
45757, -751, -1270, -627, 11340, -291970, -4130
45777, -775, -1302, -641, 6930, -286580, -28280
45797, -762, -1271, -622, 5110, -282870, -57330
45817, -720, -1179, -577, 10850, -300720, -74900
45837, -667, -1072, -540, 21700, -345310, -70350
45857, -615, -973, -494, 23030, -378630, -66220
45877, -576, -905, -456, 14070, -369740, -86730
45897, -555, -864, -428, 1260, -337190, -119700
45917, -543, -846, -409, -13440, -299460, -150570
45937, -532, -840, -404, -26040, -273980, -166390
45957, -530, -843, -406, -37310, -265230, -162960
45977, -524, -837, -407, -49280, -258930, -150920
45997, -498, -796, -385, -53410, -247870, -143220
46017, -458, -730, -344, -44240, -234010, -144060
46037, -415, -659, -305, -35910, -216230, -143570
46057, -379, -602, -277, -39690, -197190, -129080
46077, -357, -562, -260, -50960, -178710, -99750
46097, -338, -535, -248, -60550, -157570, -66920
46117, -322, -508, -234, -60690, -129710, -42280
46137, -306, -485, -219, -49490, -96040, -28350
46157, -297, -477, -211, -32060, -59080, -19530
46177, -304, -488, -217, -16590, -22610, -4830
46197, -323, -524, -234, -6370, 10010, 21350
46217, -355, -579, -266, 210, 41930, 53480
46237, -403, -667, -311, 3500, 78190, 82530
46257, -481, -801, -377, 1330, 122220, 105420
46277, -578, -982, -464, -4830, 169540, 123690
46297, -688, -1185, -560, -11200, 211120, 137900
46317, -773, -1349, -647, -17080, 238910, 175560
46337, -769, -1339, -656, -5880, 226170, 193900
46357, -675, -1159, -557, 25690, 217350, 196000
46377, -596, -992, -475, 38990, 234080, 193550
46397, -566, -903, -437, 16450, 274260, 199220
46417, -589, -912, -452, -16310, 319270, 203980
46437, -644, -999, -501, -29260, 364000, 188230
46457, -715, -1123, -555, -11550, 403270, 145530
46477, -784, -1257, -602, 17990, 430290, 96530
46497, -847, -1391, -654, 25410, 437290, 70910
46517, -889, -1482, -706, 14770, 413840, 71540
46537, -874, -1468, -702, 18340, 368690, 72870
46557, -800, -1319, -616, 31500, 339920, 51030
46577, -715, -1152, -520, 24850, 336140, 17570
46597, -645, -1020, -450, 20510, 316260, -1540
46617, -599, -941, -415, 36540, 266420, -3710
46637, -575, -899, -402, 58520, 219940, -9030
46657, -562, -881, -389, 65100, 206010, -29540
46677, -560, -879, -381, 50750, 215320, -55720
46697, -562, -880, -373, 34090, 214480, -71120
46717, -548, -857, -348, 28070, 185990, -69720
46737, -534, -850, -358, 21560, 131320, -46830
46757, -511, -803, -340, 28910, 67340, -22610
46777, -456, -707, -293, 33950, 32410, -20790
46797, -410, -620, -248, 25970, 19740, -27160
46817, -376, -555, -220, 7630, 9030, -21350
46837, -358, -513, -204, -12250, -6020, -6020
46857, -343, -478, -189, -21350, -25340, 8260
46877, -326, -447, -179, -20160, -47740, 16800
46897, -313, -431, -173, -18410, -66360, 21630
46917, -325, -452, -184, -24570, -77210, 26950
46937, -363, -517, -218, -36890, -83090, 33810
46957, -406, -608, -263, -41160, -89600, 36680
46977, -462, -721, -318, -34790, -94710, 30310
46997, -530, -868, -382, -26460, -95690, 18340
47017, -621, -1044, -464, -23310, -99260, 12110
47037, -725, -1251, -583, -31990, -118370, 23730
47057, -798, -1388, -650, -29890, -162610, 44800
47077, -780, -1357, -641, -17920, -204260, 52500
47097, -715, -1211, -568, -15610, -237790, 53130
47117, -646, -1073, -517, -12880, -278600, 63560
47137, -621, -1017, -503, 1540, -316750, 68320
47157, -607, -1006, -495, 13650, -320320, 48720
47177, -645, -1072, -526, 17780, -293510, 8400
47197, -663, -1098, -525, 15820, -267050, -25060
47217, -710, -1181, -575, 18620, -271250, -40810
47237, -747, -1247, -626, 18970, -304850, -32550
47257, -759, -1260, -636, 18060, -320880, -41860
47277, -727, -1193, -597, 24150, -307930, -85050
47297, -662, -1065, -514, 40810, -305130, -127680
47317, -616, -984, -487, 45080, -329000, -134960
47337, -586, -924, -467, 20230, -353920, -115570
47357, -566, -886, -452, -8190, -345310, -113890
47377, -544, -846, -427, -22330, -311640, -138460
47397, -528, -826, -405, -17640, -273770, -174930
47417, -516, -820, -390, -14630, -244580, -198450
47437, -513, -831, -395, -27300, -226100, -195230
47457, -505, -820, -390, -48580, -216370, -170100
47477, -488, -791, -377, -63560, -208110, -140980
47497, -454, -733, -348, -63700, -200690, -118790
47517, -411, -663, -311, -49770, -190260, -107240
47537, -372, -603, -277, -36750, -173180, -97090
47557, -342, -555, -254, -34580, -146650, -80920
47577, -322, -517, -233, -38640, -112490, -58800
47597, -306, -493, -218, -40600, -77070, -32410
47617, -302, -480, -213, -35770, -47110, -2450
47637, -298, -477, -212, -25130, -22540, 29470
47657, -308, -493, -221, -11410, 2240, 59570
47677, -333, -532, -247, 1330, 30590, 87850
47697, -372, -605, -286, 11270, 64890, 112560
47717, -436, -714, -342, 18830, 110600, 127820
47737, -510, -853, -403, 24500, 167020, 130480
47757, -607, -1030, -477, 25760, 228200, 125720
47777, -730, -1257, -593, 10360, 277270, 135660
47797, -820, -1413, -691, -23380, 293160, 176190
47817, -785, -1354, -667, -38290, 275030, 219380
47837, -686, -1169, -567, -3080, 247030, 229810
47857, -629, -1033, -496, 45570, 243670, 214060
47877, -633, -1002, -496, 44100, 277480, 205660
47897, -668, -1049, -521, 980, 332850, 203420
47917, -725, -1149, -566, -25340, 383250, 184870
47937, -797, -1281, -618, -17990, 419300, 148960
47957, -873, -1437, -684, 3500, 439110, 110390
47977, -918, -1529, -729, 11410, 438690, 89040
47997, -869, -1446, -695, 9170, 411950, 82880
48017, -781, -1280, -600, 28770, 364000, 71540
48037, -696, -1118, -509, 45850, 341250, 40950
48057, -641, -1001, -438, 37380, 342510, 6300
48077, -603, -935, -406, 40600, 282380, -10500
48097, -576, -903, -409, 60480, 234430, -15890
48117, -571, -877, -377, 66290, 224700, -42070
48137, -563, -886, -383, 52850, 225680, -65730
48157, -566, -886, -385, 58380, 188440, -62860
48177, -529, -834, -353, 63210, 154280, -61670
48197, -507, -792, -317, 44940, 137550, -63280
48217, -481, -746, -304, 11690, 108710, -40040
48237, -464, -698, -284, -1540, 65310, -16170
48257, -417, -618, -248, 10220, 18480, -8610
48277, -373, -541, -214, 24990, -21140, -8610
48297, -342, -489, -194, 17640, -42630, -2100
48317, -328, -459, -185, -2170, -48510, 8190
48337, -318, -440, -178, -17010, -48860, 14000
48357, -322, -444, -177, -29820, -46550, 14630
48377, -335, -470, -186, -44730, -47320, 17290
48397, -369, -527, -215, -51450, -60550, 26390
48417, -411, -607, -252, -49210, -84560, 39550
48437, -480, -750, -336, -39830, -113680, 50820
48457, -563, -927, -423, -27230, -129780, 47040
48477, -678, -1165, -534, -31220, -114870, 23170
48497, -765, -1347, -620, -37940, -120610, 17500
48517, -804, -1390, -638, -36960, -159460, 35000
48537, -747, -1278, -608, -49910, -223930, 70280
48557, -689, -1144, -552, -32760, -294490, 97860
48577, -635, -1053, -529, -7070, -327460, 88690
48597, -586, -966, -473, 17290, -331030, 55300
48617, -591, -976, -478, 28280, -309680, 16520
48637, -642, -1063, -515, 7700, -285740, -2450
48657, -732, -1230, -607, -4760, -276080, -13720
48677, -831, -1409, -706, -2170, -283150, -28420
48697, -868, -1467, -733, 14560, -301210, -54110
48717, -812, -1353, -676, 35700, -327740, -85120
48737, -705, -1160, -570, 37520, -357700, -102690
48757, -629, -980, -495, 32760, -384020, -113050
48777, -581, -886, -459, 18760, -393750, -121030
48797, -556, -846, -440, 2450, -384160, -135520
48817, -550, -844, -432, -12180, -354550, -160510
48837, -554, -860, -432, -29120, -313460, -189490
48857, -556, -877, -427, -46410, -271810, -212870
48877, -564, -897, -431, -65870, -243880, -217700
48897, -560, -899, -438, -82180, -236810, -200900
48917, -535, -858, -419, -81060, -241220, -181090
48937, -492, -783, -381, -64610, -243600, -170030
48957, -431, -704, -329, -51870, -234570, -162890
48977, -391, -625, -291, -53900, -213780, -148540
48997, -360, -574, -264, -67620, -187740, -121380
49017, -341, -542, -252, -85470, -160580, -83930
49037, -325, -516, -236, -94150, -133560, -46410
49057, -315, -491, -226, -85960, -108360, -16730
49077, -301, -475, -218, -64540, -88760, 9170
49097, -297, -472, -219, -36540, -70000, 31850
49117, -304, -490, -232, -10010, -44170, 51590
49137, -321, -528, -247, 10640, -8050, 67830
49157, -351, -580, -271, 26460, 37590, 80990
49177, -400, -670, -303, 34090, 87150, 96740
49197, -480, -808, -369, 28350, 132370, 125440
49217, -609, -1030, -496, 6020, 164150, 172270
49237, -741, -1273, -634, -21560, 188440, 217840
49257, -787, -1378, -679, -19670, 211820, 227640
49277, -733, -1292, -611, 27440, 223930, 206150
49297, -670, -1162, -549, 70770, 219800, 203280
49317, -652, -1084, -531, 54810, 215880, 242200
49337, -644, -1043, -525, 2450, 242130, 280840
49357, -660, -1056, -531, -22960, 287210, 280910
49377, -712, -1145, -576, -16380, 332920, 254800
49397, -809, -1318, -659, -3150, 375410, 220080
49417, -891, -1477, -730, 7490, 410970, 185990
49437, -911, -1531, -746, 17990, 426300, 160440
49457, -872, -1444, -698, 23590, 418740, 147770
49477, -799, -1296, -620, 5600, 408590, 143290
49497, -725, -1150, -539, -12880, 398930, 128590
49517, -660, -1041, -486, 4270, 371840, 105350
49537, -624, -973, -451, 41790, 331660, 82250
49557, -607, -940, -434, 65590, 310730, 57260
49577, -598, -919, -417, 67830, 314160, 26390
49597, -579, -889, -391, 65660, 322070, -4410
49617, -559, -866, -373, 68110, 310450, -20650
49637, -539, -833, -355, 67690, 276430, -16520
49657, -508, -784, -329, 59360, 237370, -3570
49677, -477, -725, -299, 53830, 193760, 9800
49697, -438, -655, -273, 62930, 141330, 22890
49717, -402, -595, -251, 74340, 93100, 32130
49737, -369, -531, -217, 76020, 69230, 30100
49757, -344, -478, -184, 64330, 75390, 14420
49777, -329, -447, -166, 41370, 87920, 4410
49797, -320, -429, -160, 22610, 75110, 17780
49817, -318, -426, -162, 16450, 38010, 43750
49837, -332, -463, -188, 6230, -24920, 80360
49857, -349, -505, -210, 280, -33040, 82180
49877, -387, -574, -241, -13090, -22820, 74830
49897, -438, -676, -289, -25480, -14000, 68460
49917, -508, -817, -355, -22890, -19600, 64680
49937, -619, -1052, -473, -26110, -26950, 64820
49957, -754, -1323, -606, -37590, -32130, 64190
49977, -832, -1475, -661, -47390, -52850, 70280
49997, -812, -1425, -654, -58730, -114240, 103530
50017, -723, -1230, -573, -50400, -206500, 152250
50037, -649, -1087, -519, -38430, -252560, 166880
50057, -597, -1001, -476, -32760, -241430, 137200
50077, -578, -975, -450, -24220, -216370, 99750
50097, -613, -1041, -478, -20650, -204120, 81760
50117, -691, -1185, -555, -33460, -207550, 88830
50137, -813, -1405, -684, -48440, -214970, 95270
50157, -889, -1551, -763, -48300, -221900, 77840
50177, -839, -1464, -708, -3850, -245560, 37520
50197, -726, -1233, -580, 35700, -290500, 15470
50217, -628, -1030, -490, 22960, -331730, 28980
50237, -581, -919, -450, -4760, -358400, 52220
50257, -552, -864, -438, -14350, -366450, 54810
50277, -540, -843, -425, -490, -350210, 22610
50297, -526, -835, -412, 10150, -306600, -31430
50317, -529, -843, -396, 4060, -253400, -81410
50337, -541, -866, -400, -19600, -212240, -103600
50357, -557, -891, -415, -38150, -206080, -96950
50377, -544, -867, -407, -34860, -225190, -80640
50397, -507, -805, -377, -13790, -246820, -73920
50417, -459, -724, -340, 1400, -256410, -69650
50437, -411, -641, -297, 490, -248080, -63840
50457, -367, -569, -261, -18340, -219730, -55300
50477, -334, -507, -230, -42350, -180670, -45290
50497, -306, -458, -207, -61110, -138460, -34720
50517, -290, -431, -191, -69580, -100100, -23660
50537, -283, -421, -186, -67270, -66570, -12740
50557, -286, -425, -189, -57680, -37380, -2520
50577, -288, -438, -195, -43470, -7350, 4620
50597, -303, -469, -206, -32130, 28560, 11270
50617, -334, -529, -234, -34300, 73500, 23870
50637, -394, -639, -286, -52430, 125020, 44310
50657, -504, -825, -382, -81690, 180460, 66080
50677, -651, -1090, -514, -109060, 236810, 74900
50697, -783, -1356, -639, -109200, 276500, 61180
50717, -830, -1478, -670, -70280, 275660, 41720
50737, -770, -1353, -612, -34930, 231770, 55720
50757, -677, -1170, -540, -38080, 172270, 105000
50777, -616, -1034, -482, -56000, 149590, 135380
50797, -585, -972, -452, -69230, 182700, 118860
50817, -613, -997, -452, -74130, 241430, 77280
50837, -682, -1121, -510, -82040, 301840, 34020
50857, -783, -1325, -600, -84700, 333760, 3430
50877, -895, -1555, -715, -72240, 325290, -8260
50897, -946, -1670, -774, -63630, 290920, -6370
50917, -889, -1553, -716, -67410, 250880, -3710
50937, -760, -1303, -589, -74830, 215530, -8680
50957, -668, -1114, -493, -73010, 187110, -23870
50977, -604, -997, -433, -64820, 167160, -42280
50997, -571, -930, -395, -61110, 155260, -56630
51017, -564, -930, -404, -63210, 145180, -63280
51037, -593, -971, -418, -70000, 134190, -65240
